{
  "resourceType": "Bundle",
  "id": "df293d48-2d6b-451f-b086-600b3fa2e326",
  "meta": {
    "profile": [
      "http://hl7.eu/fhir/eps/StructureDefinition/bundle-eu-eps"
    ]
  },
  "identifier": {
    "assigner": {
      "display": "HL7 Europe"
    },
    "system": "urn:oid:2.16.840.1.113883.2.51.999",
    "value": "628d23b5-fb73-4fcd-93df-6d6ee3c99fb8"
  },
  "entry": [
    {
      "fullUrl": "urn:uuid:b477dd72-7c59-4ca4-b901-310752c78abf",
      "resource": {
        "resourceType": "Composition",
        "id": "b477dd72-7c59-4ca4-b901-310752c78abf",
        "meta": {
          "security": [
            {
              "system": "http://terminology.hl7.org/CodeSystem/v3-ActReason",
              "code": "HTEST"
            },
            {
              "system": "http://terminology.hl7.org/CodeSystem/v3-ActReason",
              "code": "TRAIN"
            }
          ],
          "tag": [
            {
              "system": "https://synderai.net/fhir/CodeSystem/tags",
              "code": "synthetic",
              "display": "SYNDERAI Synthetic data"
            }
          ],
          "profile": [
            "http://hl7.eu/fhir/eps/StructureDefinition/composition-eu-eps"
          ]
        },
        "identifier": {
          "assigner": {
            "display": "HL7 Europe"
          },
          "system": "urn:oid:2.16.840.1.113883.2.51.999",
          "value": "7cc1c8d6-237e-499b-b890-1c93e0aaaa6f"
        },
        "type": {
          "coding": [
            {
              "code": "60591-5",
              "system": "http://loinc.org",
              "display": "Patient summary Document"
            }
          ],
          "text": "Patient summary Document"
        },
        "author": [
          {
            "reference": "urn:uuid:39f3445b-4170-4ed2-b024-cccdf99fc2b7"
          }
        ],
        "section": [
          {
            "text": {
              "status": "generated",
              "div": "<div xmlns=\"http://www.w3.org/1999/xhtml\"><table class=\"hl7__ips\"><tr><th>Condition</th><th>Onset Date</th><th>Status</th></tr><tr><td>Prediabetes</td><td><span class=\"nb\">20-Feb-2012</span></td><td>active</td></tr><tr><td>Anemia</td><td><span class=\"nb\">20-Feb-2012</span></td><td>active</td></tr></table></div>"
            },
            "entry": [
              {
                "reference": "urn:uuid:00f6b736-56ca-4cae-96ee-731e19967383"
              }
            ],
            "code": {
              "coding": [
                {
                  "system": "http://loinc.org",
                  "code": "11450-4",
                  "display": "Problem list - Reported"
                }
              ]
            },
            "title": "Problem list"
          },
          {
            "text": {
              "status": "generated",
              "div": "<div xmlns=\"http://www.w3.org/1999/xhtml\"><table class=\"hl7__ips\"><tr><td>No known medications</td></tr></table></div>"
            },
            "entry": [
              {
                "reference": "urn:uuid:0aabe65d-41e9-45df-898e-acac34ab9d8c"
              }
            ],
            "code": {
              "coding": [
                {
                  "system": "http://loinc.org",
                  "code": "10160-0",
                  "display": "History of Medication use Narrative"
                }
              ]
            },
            "title": "Medication list"
          },
          {
            "text": {
              "status": "generated",
              "div": "<div xmlns=\"http://www.w3.org/1999/xhtml\"><table class=\"hl7__ips\"><tr><th>Vaccine</th><th>Date</th></tr><tr><td>Influenza virus antigen only vaccine product</td><td><span class=\"nb\">23-Dec-2024</span></td></tr><tr><td>Hepatitis A virus antigen only vaccine product</td><td><span class=\"nb\">19-Dec-2022</span></td></tr><tr><td>Clostridium tetani toxoid antigen adsorbed only vaccine product</td><td><span class=\"nb\">19-Dec-2022</span></td></tr><tr><td>SARS-CoV-2 mRNA vaccine</td><td><span class=\"nb\">14-Jun-2021</span></td></tr></table></div>"
            },
            "entry": [
              {
                "reference": "urn:uuid:f3a8d830-393f-4f82-b584-8a6401666a17"
              }
            ],
            "code": {
              "coding": [
                {
                  "system": "http://loinc.org",
                  "code": "11369-6",
                  "display": "History of Immunization note"
                }
              ]
            },
            "title": "Immunizations list"
          },
          {
            "text": {
              "status": "generated",
              "div": "<div xmlns=\"http://www.w3.org/1999/xhtml\"><table class=\"hl7__ips\"><tr><th>Procedure</th><th>Date</th><th>Reason</th></tr><tr><td>Radiography of humerus</td><td><span class=\"nb\">06-Sep-2019</span></td><td>-</td></tr><tr><td>Bone immobilization</td><td><span class=\"nb\">06-Sep-2019</span></td><td>Fracture of forearm</td></tr><tr><td>Suture open wound</td><td><span class=\"nb\">16-Aug-2018</span></td><td>Laceration of thigh</td></tr><tr><td>Postoperative care</td><td><span class=\"nb\">13-May-2016</span></td><td>History of tubal ligation (situation)</td></tr><tr><td>Ligation of bilateral fallopian tubes</td><td><span class=\"nb\">13-May-2016</span></td><td>Sterilization requested (situation)</td></tr><tr><td>Parturition</td><td><span class=\"nb\">07-Mar-2016</span></td><td>Normal pregnancy</td></tr><tr><td>Augmentation of labor</td><td><span class=\"nb\">07-Mar-2016</span></td><td>Normal pregnancy</td></tr></table></div>"
            },
            "entry": [
              {
                "reference": "urn:uuid:9f56392a-01ff-455e-9328-5a26ef060d74"
              }
            ],
            "code": {
              "coding": [
                {
                  "system": "http://loinc.org",
                  "code": "47519-4",
                  "display": "History of Procedures Document"
                }
              ]
            },
            "title": "Procedure History list"
          },
          {
            "text": {
              "status": "generated",
              "div": "<div xmlns=\"http://www.w3.org/1999/xhtml\"><table class=\"hl7__ips\"><tr><th>Allergy/Intolerance</th><th>Onset Date</th><th>Status</th><th>Type</th><th>Reaction</th></tr><tr><td>Mold</td><td><span class=\"nb\">1981-06-29</span></td><td>active</td><td>environment</td><td>Allergic skin rash&lt;br> &lt;/br>Sneezing</td></tr><tr><td>Allergy to substance</td><td><span class=\"nb\">1981-06-29</span></td><td>active</td><td>environment</td><td></td></tr><tr><td>Shellfish</td><td><span class=\"nb\">1981-06-29</span></td><td>active</td><td>food</td><td>Anaphylaxis (disorder)&lt;br> &lt;/br>Eruption of skin (disorder)</td></tr></table></div>"
            },
            "entry": [
              {
                "reference": "urn:uuid:50c7903b-8486-40e5-a711-e44900b4cec6"
              }
            ],
            "code": {
              "coding": [
                {
                  "system": "http://loinc.org",
                  "code": "48765-2",
                  "display": "Allergies and adverse reactions Document"
                }
              ]
            },
            "title": "Allergies and Intolerances"
          },
          {
            "text": {
              "status": "generated",
              "div": "<div xmlns=\"http://www.w3.org/1999/xhtml\"><table class=\"hl7__ips\"><tr><th>Active Planned Care / Goals</th><th>Start Date</th><th>Reason</th></tr><tr><td>Diabetes self management plan</td><td><span class=\"nb\">20-Feb-2012</span></td><td>Prediabetes</td></tr><tr><td><ul><li>Patient will implement lifestyle changes (diet, exercise, weight management) to lower risk of developing type 2 diabetes.</li></ul></td><td></td><td></td></tr><tr><td>Self-care interventions</td><td><span class=\"nb\">13-Jun-1981</span></td><td>-</td></tr></table></div>"
            },
            "title": "Care Plan",
            "code": {
              "coding": [
                {
                  "code": "18776-5",
                  "system": "http://loinc.org",
                  "display": "Plan of care note"
                }
              ]
            }
          },
          {
            "text": {
              "status": "generated",
              "div": "<div xmlns=\"http://www.w3.org/1999/xhtml\"><table class=\"hl7__ips\"><tr><th>Vital Signs</th><th>2024-12-23</th><th>2022-12-19</th></tr><tr><td>Body Height</td><td>170.3 cm</td><td>170.3 cm</td></tr><tr><td>Pain severity - 0-10 verbal numeric rating [Score] - Reported</td><td>3 {score}</td><td>3 {score}</td></tr><tr><td>Body Weight</td><td>79.5 kg</td><td>79.5 kg</td></tr><tr><td>Body mass index (BMI) [Ratio]</td><td>27.4 kg/m2</td><td>27.4 kg/m2</td></tr><tr><td>Diastolic Blood Pressure</td><td>82 mm[Hg]</td><td>86 mm[Hg]</td></tr><tr><td>Systolic Blood Pressure</td><td>110 mm[Hg]</td><td>106 mm[Hg]</td></tr><tr><td>Heart rate</td><td>100 /min</td><td>97 /min</td></tr><tr><td>Respiratory rate</td><td>15 /min</td><td>14 /min</td></tr></table></div>"
            },
            "entry": [
              {
                "reference": "urn:uuid:9d188c08-0639-49c1-9ecb-b3d74d8130e1"
              }
            ],
            "code": {
              "coding": [
                {
                  "system": "http://loinc.org",
                  "code": "8716-3",
                  "display": "Vital signs note"
                }
              ]
            },
            "title": "Vital Signs"
          },
          {
            "text": {
              "status": "generated",
              "div": "<div xmlns=\"http://www.w3.org/1999/xhtml\"><table class=\"hl7__ips\">$<tr><td>[#] Births total</td><td>1</td></tr></table></div>"
            },
            "code": {
              "coding": [
                {
                  "system": "http://loinc.org",
                  "code": "10162-6",
                  "display": "History of pregnancies Narrative"
                }
              ]
            },
            "title": "Pregnancy History"
          },
          {
            "text": {
              "status": "generated",
              "div": "<div xmlns=\"http://www.w3.org/1999/xhtml\"><table class=\"hl7__ips\"><table class=\"hl7__ips\"><thead><tr><th>Recent Lab Observations</th><th>23-DEC-2024</th><th>Reference&#xA0;Range</th><th>Unit</th></tr></thead><tbody><tr><td>Hemoglobin A1c/Hemoglobin.total in Blood</td><td><strong>6.2 H</strong></td><td>4.8 - 5.7</td><td>%</td></tr><tr><td>Glucose [Mass/volume] in Blood</td><td>90.1</td><td>70 - 99</td><td>mg/dL</td></tr><tr><td>Urea nitrogen [Mass/volume] in Blood</td><td>17.1</td><td>7 - 43</td><td>mg/dL</td></tr><tr><td>Creatinine [Mass/volume] in Blood</td><td>0.9</td><td>0.6 - 1.1</td><td>mg/dL</td></tr><tr><td>Calcium [Mass/volume] in Blood</td><td>10.0</td><td>8.5 - 10.4</td><td>mg/dL</td></tr><tr><td>Sodium [Moles/volume] in Blood</td><td>140.1</td><td>135 - 145</td><td>mmol/L</td></tr><tr><td>Potassium [Moles/volume] in Blood</td><td>4.2</td><td>3.5 - 5.1</td><td>mmol/L</td></tr><tr><td>Chloride [Moles/volume] in Blood</td><td>105.6</td><td>98 - 108</td><td>mmol/L</td></tr><tr><td>Carbon dioxide, total [Moles/volume] in Blood</td><td>22.2</td><td>22 - 29</td><td>mmol/L</td></tr></tbody></table></table></div>"
            },
            "title": "Relevant diagnostic tests/laboratory data",
            "code": {
              "coding": [
                {
                  "code": "30954-2",
                  "system": "http://loinc.org",
                  "display": "Relevant diagnostic tests/laboratory data note"
                }
              ]
            }
          },
          {
            "text": {
              "status": "generated",
              "div": "<div xmlns=\"http://www.w3.org/1999/xhtml\"><table class=\"hl7__ips\"><tr><th>Device</th><th>Date (since)</th></tr><tr><td>Blood glucose meter (physical object)</td><td><span class=\"nb\">20-Feb-2012</span></td></tr></table></div>"
            },
            "entry": [
              {
                "reference": "urn:uuid:9d2ea83a-2915-427e-b63a-c4864e0a4f44"
              }
            ],
            "code": {
              "coding": [
                {
                  "system": "http://loinc.org",
                  "code": "46264-8",
                  "display": "History of medical device use"
                }
              ]
            },
            "title": "Device Use"
          }
        ],
        "title": "European Patient Summary",
        "status": "final",
        "subject": {
          "reference": "urn:uuid:c15a97b2-1401-4a0c-8db6-7c08ca76ff7a",
          "display": "Ana Belén Aguado"
        },
        "custodian": {
          "reference": "urn:uuid:34bc5d24-de4f-4a88-a6cb-66daf6fe8338"
        },
        "date": "2024-12-23",
        "confidentiality": "N"
      }
    },
    {
      "fullUrl": "urn:uuid:c15a97b2-1401-4a0c-8db6-7c08ca76ff7a",
      "resource": {
        "resourceType": "Patient",
        "id": "c15a97b2-1401-4a0c-8db6-7c08ca76ff7a",
        "meta": {
          "security": [
            {
              "system": "http://terminology.hl7.org/CodeSystem/v3-ActReason",
              "code": "HTEST"
            },
            {
              "system": "http://terminology.hl7.org/CodeSystem/v3-ActReason",
              "code": "TRAIN"
            }
          ],
          "tag": [
            {
              "system": "https://synderai.net/fhir/CodeSystem/tags",
              "code": "synthetic",
              "display": "SYNDERAI Synthetic data"
            }
          ],
          "profile": [
            "http://hl7.eu/fhir/eps/StructureDefinition/patient-eu-eps"
          ]
        },
        "identifier": [
          {
            "type": {
              "coding": [
                {
                  "code": "PT",
                  "system": "http://terminology.hl7.org/CodeSystem/v2-0203"
                }
              ]
            },
            "system": "http://ec.europa.eu/identifier/eci",
            "value": "2161-886928-9"
          },
          {
            "type": {
              "coding": [
                {
                  "code": "MR",
                  "system": "http://terminology.hl7.org/CodeSystem/v2-0203"
                }
              ]
            },
            "system": "http://local.setting.eu/identifier",
            "value": "484b3f43-a759-1bbb-35dc-9cfde431133a"
          }
        ],
        "name": [
          {
            "given": [
              "Ana Belén"
            ],
            "family": "Aguado",
            "text": "Ana Belén Aguado"
          }
        ],
        "address": [
          {
            "line": [
              "Ronda de Milagros Llanos 954 Puerta 4 "
            ],
            "use": "home",
            "type": "physical",
            "postalCode": "37008",
            "city": "Salamanca",
            "country": "Spain"
          }
        ],
        "telecom": [
          {
            "system": "phone",
            "value": "+34 882 332 571"
          }
        ],
        "extension": [
          {
            "url": "http://hl7.org/fhir/StructureDefinition/patient-nationality",
            "valueCodeableConcept": {
              "coding": [
                {
                  "code": "ES",
                  "system": "http://hl7.org/fhir/ValueSet/country"
                }
              ]
            }
          }
        ],
        "text": {
          "status": "generated",
          "div": "<div xmlns=\"http://www.w3.org/1999/xhtml\"><table class=\"hl7__ips\"><tr><td>Ana Belén Aguado</td><td>female</td><td>18-Apr-1982</td></tr></table></div>"
        },
        "gender": "female",
        "birthDate": "1982-04-18"
      }
    },
    {
      "fullUrl": "urn:uuid:39f3445b-4170-4ed2-b024-cccdf99fc2b7",
      "resource": {
        "resourceType": "PractitionerRole",
        "id": "39f3445b-4170-4ed2-b024-cccdf99fc2b7",
        "meta": {
          "profile": [
            "http://hl7.eu/fhir/base/StructureDefinition/practitionerRole-eu"
          ]
        },
        "text": {
          "status": "generated",
          "div": "<div xmlns=\"http://www.w3.org/1999/xhtml\"><table class=\"hl7__ips\">Provider Role Id 39f3445b-4170-4ed2-b024-cccdf99fc2b7</table></div>"
        },
        "practitioner": {
          "reference": "urn:uuid:194905f1-059a-4b0b-94f5-c8d64989041b"
        },
        "organization": {
          "reference": "urn:uuid:34bc5d24-de4f-4a88-a6cb-66daf6fe8338"
        }
      }
    },
    {
      "fullUrl": "urn:uuid:34bc5d24-de4f-4a88-a6cb-66daf6fe8338",
      "resource": {
        "resourceType": "Organization",
        "id": "34bc5d24-de4f-4a88-a6cb-66daf6fe8338",
        "meta": {
          "profile": [
            "http://hl7.eu/fhir/base/StructureDefinition/organization-eu"
          ]
        },
        "identifier": [
          {
            "assigner": {
              "display": "HL7 Europe"
            },
            "system": "urn:oid:2.16.840.1.113883.2.51.999",
            "value": "bcf190cb-24ba-4c25-9885-fb09e227487f"
          }
        ],
        "address": [
          {
            "line": [
              "Paseo de Las Carmelitas 74-94"
            ],
            "city": "Salamanca",
            "postalCode": "37007",
            "country": "Spain"
          }
        ],
        "text": {
          "status": "generated",
          "div": "<div xmlns=\"http://www.w3.org/1999/xhtml\"><table class=\"hl7__ips\">Hospital Santísima Trinidad</table></div>"
        },
        "name": "Hospital Santísima Trinidad"
      }
    },
    {
      "fullUrl": "urn:uuid:194905f1-059a-4b0b-94f5-c8d64989041b",
      "resource": {
        "resourceType": "Practitioner",
        "id": "194905f1-059a-4b0b-94f5-c8d64989041b",
        "meta": {
          "profile": [
            "http://hl7.eu/fhir/base/StructureDefinition/practitioner-eu"
          ]
        },
        "name": [
          {
            "prefix": [
              "Dr."
            ],
            "given": [
              "Hel"
            ],
            "family": "Ping"
          }
        ],
        "text": {
          "status": "generated",
          "div": "<div xmlns=\"http://www.w3.org/1999/xhtml\"><table class=\"hl7__ips\">Dr. Hel Ping</table></div>"
        }
      }
    },
    {
      "fullUrl": "urn:uuid:00f6b736-56ca-4cae-96ee-731e19967383",
      "resource": {
        "resourceType": "Condition",
        "id": "00f6b736-56ca-4cae-96ee-731e19967383",
        "meta": {
          "profile": [
            "http://hl7.org/fhir/uv/ips/StructureDefinition/Condition-uv-ips"
          ]
        },
        "category": [
          {
            "coding": [
              {
                "code": "problem-list-item",
                "system": "http://terminology.hl7.org/CodeSystem/condition-category",
                "display": "Problem List Item"
              }
            ]
          }
        ],
        "code": {
          "coding": [
            {
              "code": "15777000",
              "system": "http://snomed.info/sct",
              "display": "Prediabetes (disorder)"
            }
          ],
          "text": "Prediabetes"
        },
        "text": {
          "status": "generated",
          "div": "<div xmlns=\"http://www.w3.org/1999/xhtml\"><table class=\"hl7__ips\"><tr><td>Prediabetes</td><td><span class=\"nb\">20-Feb-2012</span></td><td>active</td></tr></table></div>"
        },
        "onsetDateTime": "2012-02-20",
        "subject": {
          "reference": "urn:uuid:c15a97b2-1401-4a0c-8db6-7c08ca76ff7a",
          "display": "Ana Belén Aguado"
        },
        "asserter": {
          "reference": "urn:uuid:39f3445b-4170-4ed2-b024-cccdf99fc2b7",
          "display": "Hospital Santísima Trinidad"
        }
      }
    },
    {
      "fullUrl": "urn:uuid:9e7dd81d-f728-4f9a-a294-c76df6c07525",
      "resource": {
        "resourceType": "Condition",
        "id": "9e7dd81d-f728-4f9a-a294-c76df6c07525",
        "meta": {
          "profile": [
            "http://hl7.org/fhir/uv/ips/StructureDefinition/Condition-uv-ips"
          ]
        },
        "category": [
          {
            "coding": [
              {
                "code": "problem-list-item",
                "system": "http://terminology.hl7.org/CodeSystem/condition-category",
                "display": "Problem List Item"
              }
            ]
          }
        ],
        "code": {
          "coding": [
            {
              "code": "271737000",
              "system": "http://snomed.info/sct",
              "display": "Anemia (disorder)"
            }
          ],
          "text": "Anemia"
        },
        "text": {
          "status": "generated",
          "div": "<div xmlns=\"http://www.w3.org/1999/xhtml\"><table class=\"hl7__ips\"><tr><td>Anemia</td><td><span class=\"nb\">20-Feb-2012</span></td><td>active</td></tr></table></div>"
        },
        "onsetDateTime": "2012-02-20",
        "subject": {
          "reference": "urn:uuid:c15a97b2-1401-4a0c-8db6-7c08ca76ff7a",
          "display": "Ana Belén Aguado"
        },
        "asserter": {
          "reference": "urn:uuid:39f3445b-4170-4ed2-b024-cccdf99fc2b7",
          "display": "Hospital Santísima Trinidad"
        }
      }
    },
    {
      "fullUrl": "urn:uuid:60c2e8f2-984e-49a8-ab0f-002a76502701",
      "resource": {
        "resourceType": "Condition",
        "id": "60c2e8f2-984e-49a8-ab0f-002a76502701",
        "meta": {
          "profile": [
            "http://hl7.org/fhir/uv/ips/StructureDefinition/Condition-uv-ips"
          ]
        },
        "category": [
          {
            "coding": [
              {
                "code": "problem-list-item",
                "system": "http://terminology.hl7.org/CodeSystem/condition-category",
                "display": "Problem List Item"
              }
            ]
          }
        ],
        "code": {
          "coding": [
            {
              "code": "195662009",
              "system": "http://snomed.info/sct",
              "display": "Acute viral pharyngitis (disorder)"
            }
          ],
          "text": "Acute viral pharyngitis"
        },
        "text": {
          "status": "generated",
          "div": "<div xmlns=\"http://www.w3.org/1999/xhtml\"><table class=\"hl7__ips\"><tr><td><span class=\"grayedout\">Acute viral pharyngitis</span></td><td><span class=\"nb\">07-Apr-2022 - 18-Apr-2022</span></td><td><span class=\"grayedout\">inactive</span></td></tr></table></div>"
        },
        "onsetDateTime": "2022-04-07",
        "abatementDateTime": "2022-04-18",
        "subject": {
          "reference": "urn:uuid:c15a97b2-1401-4a0c-8db6-7c08ca76ff7a",
          "display": "Ana Belén Aguado"
        },
        "asserter": {
          "reference": "urn:uuid:39f3445b-4170-4ed2-b024-cccdf99fc2b7",
          "display": "Hospital Santísima Trinidad"
        }
      }
    },
    {
      "fullUrl": "urn:uuid:42c90fc8-7ca9-46b9-bbc7-71fa59f48b82",
      "resource": {
        "resourceType": "Condition",
        "id": "42c90fc8-7ca9-46b9-bbc7-71fa59f48b82",
        "meta": {
          "profile": [
            "http://hl7.org/fhir/uv/ips/StructureDefinition/Condition-uv-ips"
          ]
        },
        "category": [
          {
            "coding": [
              {
                "code": "problem-list-item",
                "system": "http://terminology.hl7.org/CodeSystem/condition-category",
                "display": "Problem List Item"
              }
            ]
          }
        ],
        "code": {
          "coding": [
            {
              "code": "65966004",
              "system": "http://snomed.info/sct",
              "display": "Fracture of forearm (disorder)"
            }
          ],
          "text": "Fracture of forearm"
        },
        "text": {
          "status": "generated",
          "div": "<div xmlns=\"http://www.w3.org/1999/xhtml\"><table class=\"hl7__ips\"><tr><td><span class=\"grayedout\">Fracture of forearm</span></td><td><span class=\"nb\">06-Sep-2019 - 27-Oct-2019</span></td><td><span class=\"grayedout\">inactive</span></td></tr></table></div>"
        },
        "onsetDateTime": "2019-09-06",
        "abatementDateTime": "2019-10-27",
        "subject": {
          "reference": "urn:uuid:c15a97b2-1401-4a0c-8db6-7c08ca76ff7a",
          "display": "Ana Belén Aguado"
        },
        "asserter": {
          "reference": "urn:uuid:39f3445b-4170-4ed2-b024-cccdf99fc2b7",
          "display": "Hospital Santísima Trinidad"
        }
      }
    },
    {
      "fullUrl": "urn:uuid:20a19700-1128-43ef-9cd4-3b28268b8b16",
      "resource": {
        "resourceType": "Condition",
        "id": "20a19700-1128-43ef-9cd4-3b28268b8b16",
        "meta": {
          "profile": [
            "http://hl7.org/fhir/uv/ips/StructureDefinition/Condition-uv-ips"
          ]
        },
        "category": [
          {
            "coding": [
              {
                "code": "problem-list-item",
                "system": "http://terminology.hl7.org/CodeSystem/condition-category",
                "display": "Problem List Item"
              }
            ]
          }
        ],
        "code": {
          "coding": [
            {
              "code": "125605004",
              "system": "http://snomed.info/sct",
              "display": "Fracture of bone (disorder)"
            }
          ],
          "text": "Fracture of bone"
        },
        "text": {
          "status": "generated",
          "div": "<div xmlns=\"http://www.w3.org/1999/xhtml\"><table class=\"hl7__ips\"><tr><td><span class=\"grayedout\">Fracture of bone</span></td><td><span class=\"nb\">06-Sep-2019 - 27-Oct-2019</span></td><td><span class=\"grayedout\">inactive</span></td></tr></table></div>"
        },
        "onsetDateTime": "2019-09-06",
        "abatementDateTime": "2019-10-27",
        "subject": {
          "reference": "urn:uuid:c15a97b2-1401-4a0c-8db6-7c08ca76ff7a",
          "display": "Ana Belén Aguado"
        },
        "asserter": {
          "reference": "urn:uuid:39f3445b-4170-4ed2-b024-cccdf99fc2b7",
          "display": "Hospital Santísima Trinidad"
        }
      }
    },
    {
      "fullUrl": "urn:uuid:d2f48dc1-7ce2-4aa6-ae68-d7e9aeb424cb",
      "resource": {
        "resourceType": "Condition",
        "id": "d2f48dc1-7ce2-4aa6-ae68-d7e9aeb424cb",
        "meta": {
          "profile": [
            "http://hl7.org/fhir/uv/ips/StructureDefinition/Condition-uv-ips"
          ]
        },
        "category": [
          {
            "coding": [
              {
                "code": "problem-list-item",
                "system": "http://terminology.hl7.org/CodeSystem/condition-category",
                "display": "Problem List Item"
              }
            ]
          }
        ],
        "code": {
          "coding": [
            {
              "code": "283385000",
              "system": "http://snomed.info/sct",
              "display": "Laceration of thigh (disorder)"
            }
          ],
          "text": "Laceration of thigh"
        },
        "text": {
          "status": "generated",
          "div": "<div xmlns=\"http://www.w3.org/1999/xhtml\"><table class=\"hl7__ips\"><tr><td><span class=\"grayedout\">Laceration of thigh</span></td><td><span class=\"nb\">16-Aug-2018 - 06-Sep-2018</span></td><td><span class=\"grayedout\">inactive</span></td></tr></table></div>"
        },
        "onsetDateTime": "2018-08-16",
        "abatementDateTime": "2018-09-06",
        "subject": {
          "reference": "urn:uuid:c15a97b2-1401-4a0c-8db6-7c08ca76ff7a",
          "display": "Ana Belén Aguado"
        },
        "asserter": {
          "reference": "urn:uuid:39f3445b-4170-4ed2-b024-cccdf99fc2b7",
          "display": "Hospital Santísima Trinidad"
        }
      }
    },
    {
      "fullUrl": "urn:uuid:332507df-3d3e-4d40-927b-f075f552027b",
      "resource": {
        "resourceType": "Condition",
        "id": "332507df-3d3e-4d40-927b-f075f552027b",
        "meta": {
          "profile": [
            "http://hl7.org/fhir/uv/ips/StructureDefinition/Condition-uv-ips"
          ]
        },
        "category": [
          {
            "coding": [
              {
                "code": "problem-list-item",
                "system": "http://terminology.hl7.org/CodeSystem/condition-category",
                "display": "Problem List Item"
              }
            ]
          }
        ],
        "code": {
          "coding": [
            {
              "code": "312608009",
              "system": "http://snomed.info/sct",
              "display": "Laceration - injury (disorder)"
            }
          ],
          "text": "Laceration - injury"
        },
        "text": {
          "status": "generated",
          "div": "<div xmlns=\"http://www.w3.org/1999/xhtml\"><table class=\"hl7__ips\"><tr><td><span class=\"grayedout\">Laceration - injury</span></td><td><span class=\"nb\">16-Aug-2018 - 06-Sep-2018</span></td><td><span class=\"grayedout\">inactive</span></td></tr></table></div>"
        },
        "onsetDateTime": "2018-08-16",
        "abatementDateTime": "2018-09-06",
        "subject": {
          "reference": "urn:uuid:c15a97b2-1401-4a0c-8db6-7c08ca76ff7a",
          "display": "Ana Belén Aguado"
        },
        "asserter": {
          "reference": "urn:uuid:39f3445b-4170-4ed2-b024-cccdf99fc2b7",
          "display": "Hospital Santísima Trinidad"
        }
      }
    },
    {
      "fullUrl": "urn:uuid:823c4dbf-fbde-487f-9419-43659cd91a7c",
      "resource": {
        "resourceType": "Condition",
        "id": "823c4dbf-fbde-487f-9419-43659cd91a7c",
        "meta": {
          "profile": [
            "http://hl7.org/fhir/uv/ips/StructureDefinition/Condition-uv-ips"
          ]
        },
        "category": [
          {
            "coding": [
              {
                "code": "problem-list-item",
                "system": "http://terminology.hl7.org/CodeSystem/condition-category",
                "display": "Problem List Item"
              }
            ]
          }
        ],
        "code": {
          "coding": [
            {
              "code": "444814009",
              "system": "http://snomed.info/sct",
              "display": "Viral sinusitis (disorder)"
            }
          ],
          "text": "Viral sinusitis"
        },
        "text": {
          "status": "generated",
          "div": "<div xmlns=\"http://www.w3.org/1999/xhtml\"><table class=\"hl7__ips\"><tr><td><span class=\"grayedout\">Viral sinusitis</span></td><td><span class=\"nb\">07-Jul-2017 - 16-Jul-2017</span></td><td><span class=\"grayedout\">inactive</span></td></tr></table></div>"
        },
        "onsetDateTime": "2017-07-07",
        "abatementDateTime": "2017-07-16",
        "subject": {
          "reference": "urn:uuid:c15a97b2-1401-4a0c-8db6-7c08ca76ff7a",
          "display": "Ana Belén Aguado"
        },
        "asserter": {
          "reference": "urn:uuid:39f3445b-4170-4ed2-b024-cccdf99fc2b7",
          "display": "Hospital Santísima Trinidad"
        }
      }
    },
    {
      "fullUrl": "urn:uuid:ad49c594-cddd-48d7-88ce-b757d4af221a",
      "resource": {
        "resourceType": "Condition",
        "id": "ad49c594-cddd-48d7-88ce-b757d4af221a",
        "meta": {
          "profile": [
            "http://hl7.org/fhir/uv/ips/StructureDefinition/Condition-uv-ips"
          ]
        },
        "category": [
          {
            "coding": [
              {
                "code": "problem-list-item",
                "system": "http://terminology.hl7.org/CodeSystem/condition-category",
                "display": "Problem List Item"
              }
            ]
          }
        ],
        "code": {
          "coding": [
            {
              "code": "198992004",
              "system": "http://snomed.info/sct",
              "display": "Eclampsia in pregnancy (disorder)"
            }
          ],
          "text": "Eclampsia in pregnancy"
        },
        "text": {
          "status": "generated",
          "div": "<div xmlns=\"http://www.w3.org/1999/xhtml\"><table class=\"hl7__ips\"><tr><td><span class=\"grayedout\">Eclampsia in pregnancy</span></td><td><span class=\"nb\">22-Feb-2016 - 07-Mar-2016</span></td><td><span class=\"grayedout\">inactive</span></td></tr></table></div>"
        },
        "onsetDateTime": "2016-02-22",
        "abatementDateTime": "2016-03-07",
        "subject": {
          "reference": "urn:uuid:c15a97b2-1401-4a0c-8db6-7c08ca76ff7a",
          "display": "Ana Belén Aguado"
        },
        "asserter": {
          "reference": "urn:uuid:39f3445b-4170-4ed2-b024-cccdf99fc2b7",
          "display": "Hospital Santísima Trinidad"
        }
      }
    },
    {
      "fullUrl": "urn:uuid:d637b85c-6b8f-4754-88e3-84aedd64b2c4",
      "resource": {
        "resourceType": "Condition",
        "id": "d637b85c-6b8f-4754-88e3-84aedd64b2c4",
        "meta": {
          "profile": [
            "http://hl7.org/fhir/uv/ips/StructureDefinition/Condition-uv-ips"
          ]
        },
        "category": [
          {
            "coding": [
              {
                "code": "problem-list-item",
                "system": "http://terminology.hl7.org/CodeSystem/condition-category",
                "display": "Problem List Item"
              }
            ]
          }
        ],
        "code": {
          "coding": [
            {
              "code": "398254007",
              "system": "http://snomed.info/sct",
              "display": "Pre-eclampsia (disorder)"
            }
          ],
          "text": "Pre-eclampsia"
        },
        "text": {
          "status": "generated",
          "div": "<div xmlns=\"http://www.w3.org/1999/xhtml\"><table class=\"hl7__ips\"><tr><td><span class=\"grayedout\">Pre-eclampsia</span></td><td><span class=\"nb\">25-Jan-2016 - 22-Feb-2016</span></td><td><span class=\"grayedout\">inactive</span></td></tr></table></div>"
        },
        "onsetDateTime": "2016-01-25",
        "abatementDateTime": "2016-02-22",
        "subject": {
          "reference": "urn:uuid:c15a97b2-1401-4a0c-8db6-7c08ca76ff7a",
          "display": "Ana Belén Aguado"
        },
        "asserter": {
          "reference": "urn:uuid:39f3445b-4170-4ed2-b024-cccdf99fc2b7",
          "display": "Hospital Santísima Trinidad"
        }
      }
    },
    {
      "fullUrl": "urn:uuid:0aabe65d-41e9-45df-898e-acac34ab9d8c",
      "resource": {
        "resourceType": "MedicationStatement",
        "id": "0aabe65d-41e9-45df-898e-acac34ab9d8c",
        "meta": {
          "profile": [
            "http://hl7.eu/fhir/eps/StructureDefinition/MedicationStatement-eu-eps"
          ]
        },
        "effectivePeriod": {
          "extension": [
            {
              "url": "http://hl7.org/fhir/StructureDefinition/data-absent-reason",
              "valueCode": "unknown"
            }
          ]
        },
        "status": "active",
        "medicationCodeableConcept": {
          "coding": [
            {
              "code": "787481004",
              "system": "http://snomed.info/sct",
              "display": "No known medications (situation)"
            }
          ]
        },
        "subject": {
          "reference": "urn:uuid:c15a97b2-1401-4a0c-8db6-7c08ca76ff7a",
          "display": "Ana Belén Aguado"
        }
      }
    },
    {
      "fullUrl": "urn:uuid:f3a8d830-393f-4f82-b584-8a6401666a17",
      "resource": {
        "resourceType": "Immunization",
        "id": "f3a8d830-393f-4f82-b584-8a6401666a17",
        "meta": {
          "profile": [
            "http://hl7.org/fhir/uv/ips/StructureDefinition/Immunization-uv-ips"
          ]
        },
        "vaccineCode": {
          "coding": [
            {
              "code": "1181000221105",
              "system": "http://snomed.info/sct",
              "display": "Vaccine product containing Influenza virus antigen"
            },
            {
              "code": "J07BB02",
              "system": "http://www.whocc.no/atc",
              "display": "Influenza, inactivated, split virus"
            }
          ],
          "text": "Influenza virus antigen only vaccine product"
        },
        "site": {
          "coding": [
            {
              "code": "244979005",
              "system": "http://snomed.info/sct",
              "display": "Entire muscle of upper arm"
            }
          ],
          "text": "Entire muscle of upper arm"
        },
        "route": {
          "coding": [
            {
              "code": "78421000",
              "system": "http://snomed.info/sct",
              "display": "Intramuscular route"
            }
          ],
          "text": "Intramuscular route"
        },
        "text": {
          "status": "generated",
          "div": "<div xmlns=\"http://www.w3.org/1999/xhtml\"><table class=\"hl7__ips\"><tr><td>Influenza virus antigen only vaccine product</td><td><span class=\"nb\">23-Dec-2024</span></td></tr></table></div>"
        },
        "status": "completed",
        "patient": {
          "reference": "urn:uuid:c15a97b2-1401-4a0c-8db6-7c08ca76ff7a",
          "display": "Ana Belén Aguado"
        },
        "occurrenceDateTime": "2024-12-23",
        "lotNumber": "PN-Wt7ULLgrf",
        "expirationDate": "2025-09-26"
      }
    },
    {
      "fullUrl": "urn:uuid:c867ce3f-41f4-4f65-8bda-914fa2d7ae91",
      "resource": {
        "resourceType": "Immunization",
        "id": "c867ce3f-41f4-4f65-8bda-914fa2d7ae91",
        "meta": {
          "profile": [
            "http://hl7.org/fhir/uv/ips/StructureDefinition/Immunization-uv-ips"
          ]
        },
        "vaccineCode": {
          "coding": [
            {
              "code": "871751006",
              "system": "http://snomed.info/sct",
              "display": "Vaccine product containing Hepatitis A virus antigen"
            },
            {
              "code": "J07BC02",
              "system": "http://www.whocc.no/atc",
              "display": "Hepatitis A vaccines"
            }
          ],
          "text": "Hepatitis A virus antigen only vaccine product"
        },
        "site": {
          "coding": [
            {
              "code": "244979005",
              "system": "http://snomed.info/sct",
              "display": "Entire muscle of upper arm"
            }
          ],
          "text": "Entire muscle of upper arm"
        },
        "route": {
          "coding": [
            {
              "code": "78421000",
              "system": "http://snomed.info/sct",
              "display": "Intramuscular route"
            }
          ],
          "text": "Intramuscular route"
        },
        "text": {
          "status": "generated",
          "div": "<div xmlns=\"http://www.w3.org/1999/xhtml\"><table class=\"hl7__ips\"><tr><td>Hepatitis A virus antigen only vaccine product</td><td><span class=\"nb\">19-Dec-2022</span></td></tr></table></div>"
        },
        "status": "completed",
        "patient": {
          "reference": "urn:uuid:c15a97b2-1401-4a0c-8db6-7c08ca76ff7a",
          "display": "Ana Belén Aguado"
        },
        "occurrenceDateTime": "2022-12-19",
        "lotNumber": "DX-iuCxxI",
        "expirationDate": "2023-09-11"
      }
    },
    {
      "fullUrl": "urn:uuid:f9173730-fd8a-4a5f-8d5e-a361e7d95db8",
      "resource": {
        "resourceType": "Immunization",
        "id": "f9173730-fd8a-4a5f-8d5e-a361e7d95db8",
        "meta": {
          "profile": [
            "http://hl7.org/fhir/uv/ips/StructureDefinition/Immunization-uv-ips"
          ]
        },
        "vaccineCode": {
          "coding": [
            {
              "code": "777725002",
              "system": "http://snomed.info/sct",
              "display": "Vaccine product containing only Clostridium tetani toxoid antigen adsorbed"
            },
            {
              "code": "J07AM51",
              "system": "http://www.whocc.no/atc",
              "display": "Diphtheria-tetanus vaccines, adult type"
            }
          ],
          "text": "Clostridium tetani toxoid antigen adsorbed only vaccine product"
        },
        "site": {
          "coding": [
            {
              "code": "244979005",
              "system": "http://snomed.info/sct",
              "display": "Entire muscle of upper arm"
            }
          ],
          "text": "Entire muscle of upper arm"
        },
        "route": {
          "coding": [
            {
              "code": "78421000",
              "system": "http://snomed.info/sct",
              "display": "Intramuscular route"
            }
          ],
          "text": "Intramuscular route"
        },
        "text": {
          "status": "generated",
          "div": "<div xmlns=\"http://www.w3.org/1999/xhtml\"><table class=\"hl7__ips\"><tr><td>Clostridium tetani toxoid antigen adsorbed only vaccine product</td><td><span class=\"nb\">19-Dec-2022</span></td></tr></table></div>"
        },
        "status": "completed",
        "patient": {
          "reference": "urn:uuid:c15a97b2-1401-4a0c-8db6-7c08ca76ff7a",
          "display": "Ana Belén Aguado"
        },
        "occurrenceDateTime": "2022-12-19",
        "lotNumber": "UU-v0BqsD8m",
        "expirationDate": "2023-04-14"
      }
    },
    {
      "fullUrl": "urn:uuid:2b1852f3-0dfe-49d2-b4a8-2e8cb70de423",
      "resource": {
        "resourceType": "Immunization",
        "id": "2b1852f3-0dfe-49d2-b4a8-2e8cb70de423",
        "meta": {
          "profile": [
            "http://hl7.org/fhir/uv/ips/StructureDefinition/Immunization-uv-ips"
          ]
        },
        "vaccineCode": {
          "coding": [
            {
              "code": "1119349007",
              "system": "http://snomed.info/sct",
              "display": "Vaccine product containing SARS-CoV-2 mRNA"
            },
            {
              "code": "J07BX03",
              "system": "http://www.whocc.no/atc",
              "display": "COVID-19 mRNA vaccines"
            }
          ],
          "text": "SARS-CoV-2 mRNA vaccine"
        },
        "site": {
          "coding": [
            {
              "code": "244979005",
              "system": "http://snomed.info/sct",
              "display": "Entire muscle of upper arm"
            }
          ],
          "text": "Entire muscle of upper arm"
        },
        "route": {
          "coding": [
            {
              "code": "78421000",
              "system": "http://snomed.info/sct",
              "display": "Intramuscular route"
            }
          ],
          "text": "Intramuscular route"
        },
        "text": {
          "status": "generated",
          "div": "<div xmlns=\"http://www.w3.org/1999/xhtml\"><table class=\"hl7__ips\"><tr><td>SARS-CoV-2 mRNA vaccine</td><td><span class=\"nb\">14-Jun-2021</span></td></tr></table></div>"
        },
        "status": "completed",
        "patient": {
          "reference": "urn:uuid:c15a97b2-1401-4a0c-8db6-7c08ca76ff7a",
          "display": "Ana Belén Aguado"
        },
        "occurrenceDateTime": "2021-06-14",
        "lotNumber": "IK-b6kHCk",
        "expirationDate": "2022-02-13"
      }
    },
    {
      "fullUrl": "urn:uuid:9f56392a-01ff-455e-9328-5a26ef060d74",
      "resource": {
        "resourceType": "Procedure",
        "id": "9f56392a-01ff-455e-9328-5a26ef060d74",
        "meta": {
          "profile": [
            "http://hl7.org/fhir/uv/ips/StructureDefinition/Procedure-uv-ips"
          ]
        },
        "code": {
          "coding": [
            {
              "code": "1225002",
              "system": "http://snomed.info/sct",
              "display": "Upper arm X-ray"
            }
          ],
          "text": "Radiography of humerus"
        },
        "text": {
          "status": "generated",
          "div": "<div xmlns=\"http://www.w3.org/1999/xhtml\"><table class=\"hl7__ips\"><tr><td>Radiography of humerus</td><td><span class=\"nb\">06-Sep-2019</span></td><td>-</td></tr></table></div>"
        },
        "status": "completed",
        "performedDateTime": "2019-09-06",
        "subject": {
          "reference": "urn:uuid:c15a97b2-1401-4a0c-8db6-7c08ca76ff7a",
          "display": "Ana Belén Aguado"
        }
      }
    },
    {
      "fullUrl": "urn:uuid:1510a10a-e1b7-4f6c-a029-03112bb02190",
      "resource": {
        "resourceType": "Procedure",
        "id": "1510a10a-e1b7-4f6c-a029-03112bb02190",
        "meta": {
          "profile": [
            "http://hl7.org/fhir/uv/ips/StructureDefinition/Procedure-uv-ips"
          ]
        },
        "code": {
          "coding": [
            {
              "code": "274474001",
              "system": "http://snomed.info/sct",
              "display": "Bone immobilization"
            }
          ],
          "text": "Bone immobilization"
        },
        "reasonCode": [
          {
            "coding": [
              {
                "code": "65966004",
                "system": "http://snomed.info/sct",
                "display": "Fracture of forearm"
              }
            ]
          }
        ],
        "text": {
          "status": "generated",
          "div": "<div xmlns=\"http://www.w3.org/1999/xhtml\"><table class=\"hl7__ips\"><tr><td>Bone immobilization</td><td><span class=\"nb\">06-Sep-2019</span></td><td>Fracture of forearm</td></tr></table></div>"
        },
        "status": "completed",
        "performedDateTime": "2019-09-06",
        "subject": {
          "reference": "urn:uuid:c15a97b2-1401-4a0c-8db6-7c08ca76ff7a",
          "display": "Ana Belén Aguado"
        }
      }
    },
    {
      "fullUrl": "urn:uuid:ddc1c1c4-6505-450c-b6e4-66f0364691b0",
      "resource": {
        "resourceType": "Procedure",
        "id": "ddc1c1c4-6505-450c-b6e4-66f0364691b0",
        "meta": {
          "profile": [
            "http://hl7.org/fhir/uv/ips/StructureDefinition/Procedure-uv-ips"
          ]
        },
        "code": {
          "coding": [
            {
              "code": "288086009",
              "system": "http://snomed.info/sct",
              "display": "Suture open wound"
            }
          ],
          "text": "Suture open wound"
        },
        "reasonCode": [
          {
            "coding": [
              {
                "code": "283385000",
                "system": "http://snomed.info/sct",
                "display": "Laceration of thigh"
              }
            ]
          }
        ],
        "text": {
          "status": "generated",
          "div": "<div xmlns=\"http://www.w3.org/1999/xhtml\"><table class=\"hl7__ips\"><tr><td>Suture open wound</td><td><span class=\"nb\">16-Aug-2018</span></td><td>Laceration of thigh</td></tr></table></div>"
        },
        "status": "completed",
        "performedDateTime": "2018-08-16",
        "subject": {
          "reference": "urn:uuid:c15a97b2-1401-4a0c-8db6-7c08ca76ff7a",
          "display": "Ana Belén Aguado"
        }
      }
    },
    {
      "fullUrl": "urn:uuid:016b5a84-9ae2-421d-9fc9-d10c9e139f47",
      "resource": {
        "resourceType": "Procedure",
        "id": "016b5a84-9ae2-421d-9fc9-d10c9e139f47",
        "meta": {
          "profile": [
            "http://hl7.org/fhir/uv/ips/StructureDefinition/Procedure-uv-ips"
          ]
        },
        "code": {
          "coding": [
            {
              "code": "133899007",
              "system": "http://snomed.info/sct",
              "display": "Postoperative care (regime/therapy)"
            }
          ],
          "text": "Postoperative care"
        },
        "reasonCode": [
          {
            "coding": [
              {
                "code": "267020005",
                "system": "http://snomed.info/sct",
                "display": "History of tubal ligation (situation)"
              }
            ]
          }
        ],
        "text": {
          "status": "generated",
          "div": "<div xmlns=\"http://www.w3.org/1999/xhtml\"><table class=\"hl7__ips\"><tr><td>Postoperative care</td><td><span class=\"nb\">13-May-2016</span></td><td>History of tubal ligation (situation)</td></tr></table></div>"
        },
        "status": "completed",
        "performedDateTime": "2016-05-13",
        "subject": {
          "reference": "urn:uuid:c15a97b2-1401-4a0c-8db6-7c08ca76ff7a",
          "display": "Ana Belén Aguado"
        }
      }
    },
    {
      "fullUrl": "urn:uuid:b5901cb6-b170-42e9-a501-a11125decedd",
      "resource": {
        "resourceType": "Procedure",
        "id": "b5901cb6-b170-42e9-a501-a11125decedd",
        "meta": {
          "profile": [
            "http://hl7.org/fhir/uv/ips/StructureDefinition/Procedure-uv-ips"
          ]
        },
        "code": {
          "coding": [
            {
              "code": "287664005",
              "system": "http://snomed.info/sct",
              "display": "Bilateral tubal ligation"
            }
          ],
          "text": "Ligation of bilateral fallopian tubes"
        },
        "reasonCode": [
          {
            "coding": [
              {
                "code": "183996000",
                "system": "http://snomed.info/sct",
                "display": "Sterilization requested (situation)"
              }
            ]
          }
        ],
        "text": {
          "status": "generated",
          "div": "<div xmlns=\"http://www.w3.org/1999/xhtml\"><table class=\"hl7__ips\"><tr><td>Ligation of bilateral fallopian tubes</td><td><span class=\"nb\">13-May-2016</span></td><td>Sterilization requested (situation)</td></tr></table></div>"
        },
        "status": "completed",
        "performedDateTime": "2016-05-13",
        "subject": {
          "reference": "urn:uuid:c15a97b2-1401-4a0c-8db6-7c08ca76ff7a",
          "display": "Ana Belén Aguado"
        }
      }
    },
    {
      "fullUrl": "urn:uuid:e3611579-0441-4d80-b48e-05c026f60b04",
      "resource": {
        "resourceType": "Procedure",
        "id": "e3611579-0441-4d80-b48e-05c026f60b04",
        "meta": {
          "profile": [
            "http://hl7.org/fhir/uv/ips/StructureDefinition/Procedure-uv-ips"
          ]
        },
        "code": {
          "coding": [
            {
              "code": "66348005",
              "system": "http://snomed.info/sct",
              "display": "Childbirth"
            }
          ],
          "text": "Parturition"
        },
        "reasonCode": [
          {
            "coding": [
              {
                "code": "72892002",
                "system": "http://snomed.info/sct",
                "display": "Normal pregnancy"
              }
            ]
          }
        ],
        "text": {
          "status": "generated",
          "div": "<div xmlns=\"http://www.w3.org/1999/xhtml\"><table class=\"hl7__ips\"><tr><td>Parturition</td><td><span class=\"nb\">07-Mar-2016</span></td><td>Normal pregnancy</td></tr></table></div>"
        },
        "status": "completed",
        "performedDateTime": "2016-03-07",
        "subject": {
          "reference": "urn:uuid:c15a97b2-1401-4a0c-8db6-7c08ca76ff7a",
          "display": "Ana Belén Aguado"
        }
      }
    },
    {
      "fullUrl": "urn:uuid:eb470752-38ac-465b-bf8d-6b124f31157b",
      "resource": {
        "resourceType": "Procedure",
        "id": "eb470752-38ac-465b-bf8d-6b124f31157b",
        "meta": {
          "profile": [
            "http://hl7.org/fhir/uv/ips/StructureDefinition/Procedure-uv-ips"
          ]
        },
        "code": {
          "coding": [
            {
              "code": "237001001",
              "system": "http://snomed.info/sct",
              "display": "Augmentation of labor"
            }
          ],
          "text": "Augmentation of labor"
        },
        "reasonCode": [
          {
            "coding": [
              {
                "code": "72892002",
                "system": "http://snomed.info/sct",
                "display": "Normal pregnancy"
              }
            ]
          }
        ],
        "text": {
          "status": "generated",
          "div": "<div xmlns=\"http://www.w3.org/1999/xhtml\"><table class=\"hl7__ips\"><tr><td>Augmentation of labor</td><td><span class=\"nb\">07-Mar-2016</span></td><td>Normal pregnancy</td></tr></table></div>"
        },
        "status": "completed",
        "performedDateTime": "2016-03-07",
        "subject": {
          "reference": "urn:uuid:c15a97b2-1401-4a0c-8db6-7c08ca76ff7a",
          "display": "Ana Belén Aguado"
        }
      }
    },
    {
      "fullUrl": "urn:uuid:50c7903b-8486-40e5-a711-e44900b4cec6",
      "resource": {
        "resourceType": "AllergyIntolerance",
        "id": "50c7903b-8486-40e5-a711-e44900b4cec6",
        "meta": {
          "profile": [
            "http://hl7.eu/fhir/base/StructureDefinition/allergyIntolerance-eu-core"
          ]
        },
        "code": {
          "coding": [
            {
              "code": "84489001",
              "system": "http://snomed.info/sct",
              "display": "Mold (organism)"
            }
          ],
          "text": "Mold"
        },
        "clinicalStatus": {
          "coding": [
            {
              "code": "active",
              "system": "http://terminology.hl7.org/CodeSystem/allergyintolerance-clinical"
            }
          ]
        },
        "category": [
          "environment"
        ],
        "reaction": [
          {
            "manifestation": [
              {
                "coding": [
                  {
                    "code": "21626009",
                    "system": "http://snomed.info/sct",
                    "display": "Allergic skin rash"
                  }
                ]
              }
            ],
            "severity": "mild"
          },
          {
            "manifestation": [
              {
                "coding": [
                  {
                    "code": "76067001",
                    "system": "http://snomed.info/sct",
                    "display": "Sneezing"
                  }
                ]
              }
            ],
            "severity": "mild"
          }
        ],
        "text": {
          "status": "generated",
          "div": "<div xmlns=\"http://www.w3.org/1999/xhtml\"><table class=\"hl7__ips\"><tr><th>Allergy/Intolerance</th><th>Onset Date</th><th>Status</th><th>Type</th><th>Reaction</th></tr><tr><td>Mold</td><td><span class=\"nb\">1981-06-29</span></td><td>active</td><td>environment</td><td>Allergic skin rash&lt;br> &lt;/br>Sneezing</td></tr></table></div>"
        },
        "onsetDateTime": "1981-06-29",
        "verificationStatus": {
          "coding": [
            {
              "code": "confirmed",
              "system": "http://terminology.hl7.org/CodeSystem/allergyintolerance-verification"
            }
          ]
        },
        "type": "allergy",
        "patient": {
          "reference": "urn:uuid:c15a97b2-1401-4a0c-8db6-7c08ca76ff7a",
          "display": "Ana Belén Aguado"
        }
      }
    },
    {
      "fullUrl": "urn:uuid:263641c0-f10e-4456-85ea-169f37e3f036",
      "resource": {
        "resourceType": "AllergyIntolerance",
        "id": "263641c0-f10e-4456-85ea-169f37e3f036",
        "meta": {
          "profile": [
            "http://hl7.eu/fhir/base/StructureDefinition/allergyIntolerance-eu-core"
          ]
        },
        "code": {
          "coding": [
            {
              "code": "419199007",
              "system": "http://snomed.info/sct",
              "display": "Allergy to substance (finding)"
            }
          ],
          "text": "Allergy to substance"
        },
        "clinicalStatus": {
          "coding": [
            {
              "code": "active",
              "system": "http://terminology.hl7.org/CodeSystem/allergyintolerance-clinical"
            }
          ]
        },
        "category": [
          "environment"
        ],
        "text": {
          "status": "generated",
          "div": "<div xmlns=\"http://www.w3.org/1999/xhtml\"><table class=\"hl7__ips\"><tr><th>Allergy/Intolerance</th><th>Onset Date</th><th>Status</th><th>Type</th><th>Reaction</th></tr><tr><td>Allergy to substance</td><td><span class=\"nb\">1981-06-29</span></td><td>active</td><td>environment</td><td></td></tr></table></div>"
        },
        "onsetDateTime": "1981-06-29",
        "verificationStatus": {
          "coding": [
            {
              "code": "confirmed",
              "system": "http://terminology.hl7.org/CodeSystem/allergyintolerance-verification"
            }
          ]
        },
        "type": "allergy",
        "patient": {
          "reference": "urn:uuid:c15a97b2-1401-4a0c-8db6-7c08ca76ff7a",
          "display": "Ana Belén Aguado"
        }
      }
    },
    {
      "fullUrl": "urn:uuid:90de3014-7ded-4d75-8980-d80abbb74d5e",
      "resource": {
        "resourceType": "AllergyIntolerance",
        "id": "90de3014-7ded-4d75-8980-d80abbb74d5e",
        "meta": {
          "profile": [
            "http://hl7.eu/fhir/base/StructureDefinition/allergyIntolerance-eu-core"
          ]
        },
        "code": {
          "coding": [
            {
              "code": "735029006",
              "system": "http://snomed.info/sct",
              "display": "Shellfish (substance)"
            }
          ],
          "text": "Shellfish"
        },
        "clinicalStatus": {
          "coding": [
            {
              "code": "active",
              "system": "http://terminology.hl7.org/CodeSystem/allergyintolerance-clinical"
            }
          ]
        },
        "category": [
          "food"
        ],
        "reaction": [
          {
            "manifestation": [
              {
                "coding": [
                  {
                    "code": "39579001",
                    "system": "http://snomed.info/sct",
                    "display": "Anaphylaxis (disorder)"
                  }
                ]
              }
            ],
            "severity": "severe"
          },
          {
            "manifestation": [
              {
                "coding": [
                  {
                    "code": "271807003",
                    "system": "http://snomed.info/sct",
                    "display": "Eruption of skin (disorder)"
                  }
                ]
              }
            ],
            "severity": "moderate"
          }
        ],
        "text": {
          "status": "generated",
          "div": "<div xmlns=\"http://www.w3.org/1999/xhtml\"><table class=\"hl7__ips\"><tr><th>Allergy/Intolerance</th><th>Onset Date</th><th>Status</th><th>Type</th><th>Reaction</th></tr><tr><td>Shellfish</td><td><span class=\"nb\">1981-06-29</span></td><td>active</td><td>food</td><td>Anaphylaxis (disorder)&lt;br> &lt;/br>Eruption of skin (disorder)</td></tr></table></div>"
        },
        "onsetDateTime": "1981-06-29",
        "verificationStatus": {
          "coding": [
            {
              "code": "confirmed",
              "system": "http://terminology.hl7.org/CodeSystem/allergyintolerance-verification"
            }
          ]
        },
        "type": "allergy",
        "patient": {
          "reference": "urn:uuid:c15a97b2-1401-4a0c-8db6-7c08ca76ff7a",
          "display": "Ana Belén Aguado"
        }
      }
    },
    {
      "fullUrl": "urn:uuid:3afc5247-ccc8-4ee4-b157-506acf803a7b",
      "resource": {
        "resourceType": "CarePlan",
        "id": "3afc5247-ccc8-4ee4-b157-506acf803a7b",
        "category": [
          {
            "coding": [
              {
                "code": "assess-plan",
                "system": "http://terminology.hl7.org/CodeSystem/care-plan-category",
                "display": "Assessment and Plan"
              }
            ]
          }
        ],
        "activity": [
          {
            "detail": {
              "code": {
                "coding": [
                  {
                    "code": "698360004",
                    "system": "http://snomed.info/sct",
                    "display": "Diabetes self management plan (qualifier value)"
                  }
                ]
              },
              "reasonCode": [
                {
                  "coding": [
                    {
                      "code": "15777000",
                      "system": "http://snomed.info/sct",
                      "display": "Prediabetes"
                    }
                  ]
                }
              ],
              "status": "unknown",
              "description": "Diabetes self management plan",
              "kind": "Appointment"
            }
          }
        ],
        "period": {
          "start": "2012-02-20"
        },
        "goal": [
          {
            "reference": "urn:uuid:6048e24e-33e6-4365-b15f-509bd6f05681"
          }
        ],
        "text": {
          "status": "generated",
          "div": "<div xmlns=\"http://www.w3.org/1999/xhtml\"><table class=\"hl7__ips first25\"><tr><th>Active Planned Care / Goals</th><th>Start Date</th><th>Reason</th></tr><tr><td>Diabetes self management plan</td><td><span class=\"nb\">20-Feb-2012</span></td><td>Prediabetes</td></tr><tr><td><ul><li>Patient will implement lifestyle changes (diet, exercise, weight management) to lower risk of developing type 2 diabetes.</li></ul></td><td></td><td></td></tr></table></div>"
        },
        "status": "active",
        "intent": "plan",
        "subject": {
          "reference": "urn:uuid:c15a97b2-1401-4a0c-8db6-7c08ca76ff7a",
          "display": "Ana Belén Aguado"
        }
      }
    },
    {
      "fullUrl": "urn:uuid:6adc3a6e-40ec-483b-9afe-f31970bd1999",
      "resource": {
        "resourceType": "CarePlan",
        "id": "6adc3a6e-40ec-483b-9afe-f31970bd1999",
        "category": [
          {
            "coding": [
              {
                "code": "assess-plan",
                "system": "http://terminology.hl7.org/CodeSystem/care-plan-category",
                "display": "Assessment and Plan"
              }
            ]
          }
        ],
        "activity": [
          {
            "detail": {
              "code": {
                "coding": [
                  {
                    "code": "384758001",
                    "system": "http://snomed.info/sct",
                    "display": "Self-care interventions (procedure)"
                  }
                ]
              },
              "status": "unknown",
              "description": "Self-care interventions",
              "kind": "Appointment"
            }
          }
        ],
        "period": {
          "start": "1981-06-13"
        },
        "text": {
          "status": "generated",
          "div": "<div xmlns=\"http://www.w3.org/1999/xhtml\"><table class=\"hl7__ips first25\"><tr><th>Active Planned Care / Goals</th><th>Start Date</th><th>Reason</th></tr><tr><td>Self-care interventions</td><td><span class=\"nb\">13-Jun-1981</span></td><td>-</td></tr></table></div>"
        },
        "status": "active",
        "intent": "plan",
        "subject": {
          "reference": "urn:uuid:c15a97b2-1401-4a0c-8db6-7c08ca76ff7a",
          "display": "Ana Belén Aguado"
        }
      }
    },
    {
      "fullUrl": "urn:uuid:9d188c08-0639-49c1-9ecb-b3d74d8130e1",
      "resource": {
        "resourceType": "Observation",
        "id": "9d188c08-0639-49c1-9ecb-b3d74d8130e1",
        "meta": {
          "profile": [
            "http://hl7.org/fhir/StructureDefinition/vitalsigns"
          ]
        },
        "category": [
          {
            "coding": [
              {
                "system": "http://terminology.hl7.org/CodeSystem/observation-category",
                "code": "vital-signs",
                "display": "Vital Signs"
              }
            ]
          }
        ],
        "valueQuantity": {
          "value": 170.3,
          "code": "cm",
          "unit": "cm"
        },
        "text": {
          "status": "generated",
          "div": "<div xmlns=\"http://www.w3.org/1999/xhtml\"><table class=\"hl7__ips\"><tr><th>Vital Sign</th><th>Date</th><th>Measurement</th></tr><tr><td>Body Height</td><td>23-Dec-2024</td><td>170.3 cm</td></tr></table></div>"
        },
        "status": "final",
        "code": {
          "coding": [
            {
              "code": "8302-2",
              "system": "http://loinc.org",
              "display": "Body Height"
            }
          ]
        },
        "subject": {
          "reference": "urn:uuid:c15a97b2-1401-4a0c-8db6-7c08ca76ff7a",
          "display": "Ana Belén Aguado"
        },
        "effectiveDateTime": "2024-12-23"
      }
    },
    {
      "fullUrl": "urn:uuid:afcc7af0-767d-4c76-9237-053aec9ace97",
      "resource": {
        "resourceType": "Observation",
        "id": "afcc7af0-767d-4c76-9237-053aec9ace97",
        "meta": {
          "profile": [
            "http://hl7.org/fhir/StructureDefinition/vitalsigns"
          ]
        },
        "category": [
          {
            "coding": [
              {
                "system": "http://terminology.hl7.org/CodeSystem/observation-category",
                "code": "vital-signs",
                "display": "Vital Signs"
              }
            ]
          }
        ],
        "valueQuantity": {
          "value": 3,
          "code": "{score}",
          "unit": "{score}"
        },
        "text": {
          "status": "generated",
          "div": "<div xmlns=\"http://www.w3.org/1999/xhtml\"><table class=\"hl7__ips\"><tr><th>Vital Sign</th><th>Date</th><th>Measurement</th></tr><tr><td>Pain severity - 0-10 verbal numeric rating [Score] - Reported</td><td>23-Dec-2024</td><td>3 {score}</td></tr></table></div>"
        },
        "status": "final",
        "code": {
          "coding": [
            {
              "code": "72514-3",
              "system": "http://loinc.org",
              "display": "Pain severity - 0-10 verbal numeric rating [Score] - Reported"
            }
          ]
        },
        "subject": {
          "reference": "urn:uuid:c15a97b2-1401-4a0c-8db6-7c08ca76ff7a",
          "display": "Ana Belén Aguado"
        },
        "effectiveDateTime": "2024-12-23"
      }
    },
    {
      "fullUrl": "urn:uuid:bc163387-cfc5-4bec-9205-ad7a0e13b1bb",
      "resource": {
        "resourceType": "Observation",
        "id": "bc163387-cfc5-4bec-9205-ad7a0e13b1bb",
        "meta": {
          "profile": [
            "http://hl7.org/fhir/StructureDefinition/vitalsigns"
          ]
        },
        "category": [
          {
            "coding": [
              {
                "system": "http://terminology.hl7.org/CodeSystem/observation-category",
                "code": "vital-signs",
                "display": "Vital Signs"
              }
            ]
          }
        ],
        "valueQuantity": {
          "value": 79.5,
          "code": "kg",
          "unit": "kg"
        },
        "text": {
          "status": "generated",
          "div": "<div xmlns=\"http://www.w3.org/1999/xhtml\"><table class=\"hl7__ips\"><tr><th>Vital Sign</th><th>Date</th><th>Measurement</th></tr><tr><td>Body Weight</td><td>23-Dec-2024</td><td>79.5 kg</td></tr></table></div>"
        },
        "status": "final",
        "code": {
          "coding": [
            {
              "code": "29463-7",
              "system": "http://loinc.org",
              "display": "Body Weight"
            }
          ]
        },
        "subject": {
          "reference": "urn:uuid:c15a97b2-1401-4a0c-8db6-7c08ca76ff7a",
          "display": "Ana Belén Aguado"
        },
        "effectiveDateTime": "2024-12-23"
      }
    },
    {
      "fullUrl": "urn:uuid:6da8d72f-0135-413e-b4ad-059f0627f153",
      "resource": {
        "resourceType": "Observation",
        "id": "6da8d72f-0135-413e-b4ad-059f0627f153",
        "meta": {
          "profile": [
            "http://hl7.org/fhir/StructureDefinition/vitalsigns"
          ]
        },
        "category": [
          {
            "coding": [
              {
                "system": "http://terminology.hl7.org/CodeSystem/observation-category",
                "code": "vital-signs",
                "display": "Vital Signs"
              }
            ]
          }
        ],
        "valueQuantity": {
          "value": 27.4,
          "code": "kg/m2",
          "unit": "kg/m2"
        },
        "text": {
          "status": "generated",
          "div": "<div xmlns=\"http://www.w3.org/1999/xhtml\"><table class=\"hl7__ips\"><tr><th>Vital Sign</th><th>Date</th><th>Measurement</th></tr><tr><td>Body mass index (BMI) [Ratio]</td><td>23-Dec-2024</td><td>27.4 kg/m2</td></tr></table></div>"
        },
        "status": "final",
        "code": {
          "coding": [
            {
              "code": "39156-5",
              "system": "http://loinc.org",
              "display": "Body mass index (BMI) [Ratio]"
            }
          ]
        },
        "subject": {
          "reference": "urn:uuid:c15a97b2-1401-4a0c-8db6-7c08ca76ff7a",
          "display": "Ana Belén Aguado"
        },
        "effectiveDateTime": "2024-12-23"
      }
    },
    {
      "fullUrl": "urn:uuid:3ba22a48-e1f9-46b6-9e0f-bf668af5f274",
      "resource": {
        "resourceType": "Observation",
        "id": "3ba22a48-e1f9-46b6-9e0f-bf668af5f274",
        "meta": {
          "profile": [
            "http://hl7.org/fhir/StructureDefinition/vitalsigns"
          ]
        },
        "category": [
          {
            "coding": [
              {
                "system": "http://terminology.hl7.org/CodeSystem/observation-category",
                "code": "vital-signs",
                "display": "Vital Signs"
              }
            ]
          }
        ],
        "valueQuantity": {
          "value": 82,
          "code": "mm[Hg]",
          "unit": "mm[Hg]"
        },
        "text": {
          "status": "generated",
          "div": "<div xmlns=\"http://www.w3.org/1999/xhtml\"><table class=\"hl7__ips\"><tr><th>Vital Sign</th><th>Date</th><th>Measurement</th></tr><tr><td>Diastolic Blood Pressure</td><td>23-Dec-2024</td><td>82 mm[Hg]</td></tr></table></div>"
        },
        "status": "final",
        "code": {
          "coding": [
            {
              "code": "8462-4",
              "system": "http://loinc.org",
              "display": "Diastolic Blood Pressure"
            }
          ]
        },
        "subject": {
          "reference": "urn:uuid:c15a97b2-1401-4a0c-8db6-7c08ca76ff7a",
          "display": "Ana Belén Aguado"
        },
        "effectiveDateTime": "2024-12-23"
      }
    },
    {
      "fullUrl": "urn:uuid:f90a0174-12cf-44fd-8c81-8853eb15fc8e",
      "resource": {
        "resourceType": "Observation",
        "id": "f90a0174-12cf-44fd-8c81-8853eb15fc8e",
        "meta": {
          "profile": [
            "http://hl7.org/fhir/StructureDefinition/vitalsigns"
          ]
        },
        "category": [
          {
            "coding": [
              {
                "system": "http://terminology.hl7.org/CodeSystem/observation-category",
                "code": "vital-signs",
                "display": "Vital Signs"
              }
            ]
          }
        ],
        "valueQuantity": {
          "value": 110,
          "code": "mm[Hg]",
          "unit": "mm[Hg]"
        },
        "text": {
          "status": "generated",
          "div": "<div xmlns=\"http://www.w3.org/1999/xhtml\"><table class=\"hl7__ips\"><tr><th>Vital Sign</th><th>Date</th><th>Measurement</th></tr><tr><td>Systolic Blood Pressure</td><td>23-Dec-2024</td><td>110 mm[Hg]</td></tr></table></div>"
        },
        "status": "final",
        "code": {
          "coding": [
            {
              "code": "8480-6",
              "system": "http://loinc.org",
              "display": "Systolic Blood Pressure"
            }
          ]
        },
        "subject": {
          "reference": "urn:uuid:c15a97b2-1401-4a0c-8db6-7c08ca76ff7a",
          "display": "Ana Belén Aguado"
        },
        "effectiveDateTime": "2024-12-23"
      }
    },
    {
      "fullUrl": "urn:uuid:874aa544-5134-4a97-9340-7eb7cb30e178",
      "resource": {
        "resourceType": "Observation",
        "id": "874aa544-5134-4a97-9340-7eb7cb30e178",
        "meta": {
          "profile": [
            "http://hl7.org/fhir/StructureDefinition/vitalsigns"
          ]
        },
        "category": [
          {
            "coding": [
              {
                "system": "http://terminology.hl7.org/CodeSystem/observation-category",
                "code": "vital-signs",
                "display": "Vital Signs"
              }
            ]
          }
        ],
        "valueQuantity": {
          "value": 100,
          "code": "/min",
          "unit": "/min"
        },
        "text": {
          "status": "generated",
          "div": "<div xmlns=\"http://www.w3.org/1999/xhtml\"><table class=\"hl7__ips\"><tr><th>Vital Sign</th><th>Date</th><th>Measurement</th></tr><tr><td>Heart rate</td><td>23-Dec-2024</td><td>100 /min</td></tr></table></div>"
        },
        "status": "final",
        "code": {
          "coding": [
            {
              "code": "8867-4",
              "system": "http://loinc.org",
              "display": "Heart rate"
            }
          ]
        },
        "subject": {
          "reference": "urn:uuid:c15a97b2-1401-4a0c-8db6-7c08ca76ff7a",
          "display": "Ana Belén Aguado"
        },
        "effectiveDateTime": "2024-12-23"
      }
    },
    {
      "fullUrl": "urn:uuid:f856b3a1-b0f3-4323-80de-ab3a648cf778",
      "resource": {
        "resourceType": "Observation",
        "id": "f856b3a1-b0f3-4323-80de-ab3a648cf778",
        "meta": {
          "profile": [
            "http://hl7.org/fhir/StructureDefinition/vitalsigns"
          ]
        },
        "category": [
          {
            "coding": [
              {
                "system": "http://terminology.hl7.org/CodeSystem/observation-category",
                "code": "vital-signs",
                "display": "Vital Signs"
              }
            ]
          }
        ],
        "valueQuantity": {
          "value": 15,
          "code": "/min",
          "unit": "/min"
        },
        "text": {
          "status": "generated",
          "div": "<div xmlns=\"http://www.w3.org/1999/xhtml\"><table class=\"hl7__ips\"><tr><th>Vital Sign</th><th>Date</th><th>Measurement</th></tr><tr><td>Respiratory rate</td><td>23-Dec-2024</td><td>15 /min</td></tr></table></div>"
        },
        "status": "final",
        "code": {
          "coding": [
            {
              "code": "9279-1",
              "system": "http://loinc.org",
              "display": "Respiratory rate"
            }
          ]
        },
        "subject": {
          "reference": "urn:uuid:c15a97b2-1401-4a0c-8db6-7c08ca76ff7a",
          "display": "Ana Belén Aguado"
        },
        "effectiveDateTime": "2024-12-23"
      }
    },
    {
      "fullUrl": "urn:uuid:7810958e-1b79-4314-9f3b-d00f55408da5",
      "resource": {
        "resourceType": "Observation",
        "id": "7810958e-1b79-4314-9f3b-d00f55408da5",
        "meta": {
          "profile": [
            "http://hl7.org/fhir/StructureDefinition/vitalsigns"
          ]
        },
        "category": [
          {
            "coding": [
              {
                "system": "http://terminology.hl7.org/CodeSystem/observation-category",
                "code": "vital-signs",
                "display": "Vital Signs"
              }
            ]
          }
        ],
        "valueQuantity": {
          "value": 170.3,
          "code": "cm",
          "unit": "cm"
        },
        "text": {
          "status": "generated",
          "div": "<div xmlns=\"http://www.w3.org/1999/xhtml\"><table class=\"hl7__ips\"><tr><th>Vital Sign</th><th>Date</th><th>Measurement</th></tr><tr><td>Body Height</td><td>19-Dec-2022</td><td>170.3 cm</td></tr></table></div>"
        },
        "status": "final",
        "code": {
          "coding": [
            {
              "code": "8302-2",
              "system": "http://loinc.org",
              "display": "Body Height"
            }
          ]
        },
        "subject": {
          "reference": "urn:uuid:c15a97b2-1401-4a0c-8db6-7c08ca76ff7a",
          "display": "Ana Belén Aguado"
        },
        "effectiveDateTime": "2022-12-19"
      }
    },
    {
      "fullUrl": "urn:uuid:146a8daa-11ac-4858-8dc2-b1a660b87001",
      "resource": {
        "resourceType": "Observation",
        "id": "146a8daa-11ac-4858-8dc2-b1a660b87001",
        "meta": {
          "profile": [
            "http://hl7.org/fhir/StructureDefinition/vitalsigns"
          ]
        },
        "category": [
          {
            "coding": [
              {
                "system": "http://terminology.hl7.org/CodeSystem/observation-category",
                "code": "vital-signs",
                "display": "Vital Signs"
              }
            ]
          }
        ],
        "valueQuantity": {
          "value": 3,
          "code": "{score}",
          "unit": "{score}"
        },
        "text": {
          "status": "generated",
          "div": "<div xmlns=\"http://www.w3.org/1999/xhtml\"><table class=\"hl7__ips\"><tr><th>Vital Sign</th><th>Date</th><th>Measurement</th></tr><tr><td>Pain severity - 0-10 verbal numeric rating [Score] - Reported</td><td>19-Dec-2022</td><td>3 {score}</td></tr></table></div>"
        },
        "status": "final",
        "code": {
          "coding": [
            {
              "code": "72514-3",
              "system": "http://loinc.org",
              "display": "Pain severity - 0-10 verbal numeric rating [Score] - Reported"
            }
          ]
        },
        "subject": {
          "reference": "urn:uuid:c15a97b2-1401-4a0c-8db6-7c08ca76ff7a",
          "display": "Ana Belén Aguado"
        },
        "effectiveDateTime": "2022-12-19"
      }
    },
    {
      "fullUrl": "urn:uuid:afce06ca-b2ed-4c8d-bf99-d806708f806e",
      "resource": {
        "resourceType": "Observation",
        "id": "afce06ca-b2ed-4c8d-bf99-d806708f806e",
        "meta": {
          "profile": [
            "http://hl7.org/fhir/StructureDefinition/vitalsigns"
          ]
        },
        "category": [
          {
            "coding": [
              {
                "system": "http://terminology.hl7.org/CodeSystem/observation-category",
                "code": "vital-signs",
                "display": "Vital Signs"
              }
            ]
          }
        ],
        "valueQuantity": {
          "value": 79.5,
          "code": "kg",
          "unit": "kg"
        },
        "text": {
          "status": "generated",
          "div": "<div xmlns=\"http://www.w3.org/1999/xhtml\"><table class=\"hl7__ips\"><tr><th>Vital Sign</th><th>Date</th><th>Measurement</th></tr><tr><td>Body Weight</td><td>19-Dec-2022</td><td>79.5 kg</td></tr></table></div>"
        },
        "status": "final",
        "code": {
          "coding": [
            {
              "code": "29463-7",
              "system": "http://loinc.org",
              "display": "Body Weight"
            }
          ]
        },
        "subject": {
          "reference": "urn:uuid:c15a97b2-1401-4a0c-8db6-7c08ca76ff7a",
          "display": "Ana Belén Aguado"
        },
        "effectiveDateTime": "2022-12-19"
      }
    },
    {
      "fullUrl": "urn:uuid:e98ec20d-2121-411c-a447-9599152ae23d",
      "resource": {
        "resourceType": "Observation",
        "id": "e98ec20d-2121-411c-a447-9599152ae23d",
        "meta": {
          "profile": [
            "http://hl7.org/fhir/StructureDefinition/vitalsigns"
          ]
        },
        "category": [
          {
            "coding": [
              {
                "system": "http://terminology.hl7.org/CodeSystem/observation-category",
                "code": "vital-signs",
                "display": "Vital Signs"
              }
            ]
          }
        ],
        "valueQuantity": {
          "value": 27.4,
          "code": "kg/m2",
          "unit": "kg/m2"
        },
        "text": {
          "status": "generated",
          "div": "<div xmlns=\"http://www.w3.org/1999/xhtml\"><table class=\"hl7__ips\"><tr><th>Vital Sign</th><th>Date</th><th>Measurement</th></tr><tr><td>Body mass index (BMI) [Ratio]</td><td>19-Dec-2022</td><td>27.4 kg/m2</td></tr></table></div>"
        },
        "status": "final",
        "code": {
          "coding": [
            {
              "code": "39156-5",
              "system": "http://loinc.org",
              "display": "Body mass index (BMI) [Ratio]"
            }
          ]
        },
        "subject": {
          "reference": "urn:uuid:c15a97b2-1401-4a0c-8db6-7c08ca76ff7a",
          "display": "Ana Belén Aguado"
        },
        "effectiveDateTime": "2022-12-19"
      }
    },
    {
      "fullUrl": "urn:uuid:268fadf9-230d-406e-ba82-05df2065e81a",
      "resource": {
        "resourceType": "Observation",
        "id": "268fadf9-230d-406e-ba82-05df2065e81a",
        "meta": {
          "profile": [
            "http://hl7.org/fhir/StructureDefinition/vitalsigns"
          ]
        },
        "category": [
          {
            "coding": [
              {
                "system": "http://terminology.hl7.org/CodeSystem/observation-category",
                "code": "vital-signs",
                "display": "Vital Signs"
              }
            ]
          }
        ],
        "valueQuantity": {
          "value": 86,
          "code": "mm[Hg]",
          "unit": "mm[Hg]"
        },
        "text": {
          "status": "generated",
          "div": "<div xmlns=\"http://www.w3.org/1999/xhtml\"><table class=\"hl7__ips\"><tr><th>Vital Sign</th><th>Date</th><th>Measurement</th></tr><tr><td>Diastolic Blood Pressure</td><td>19-Dec-2022</td><td>86 mm[Hg]</td></tr></table></div>"
        },
        "status": "final",
        "code": {
          "coding": [
            {
              "code": "8462-4",
              "system": "http://loinc.org",
              "display": "Diastolic Blood Pressure"
            }
          ]
        },
        "subject": {
          "reference": "urn:uuid:c15a97b2-1401-4a0c-8db6-7c08ca76ff7a",
          "display": "Ana Belén Aguado"
        },
        "effectiveDateTime": "2022-12-19"
      }
    },
    {
      "fullUrl": "urn:uuid:1677715f-2164-4ff1-bf81-323682b2579a",
      "resource": {
        "resourceType": "Observation",
        "id": "1677715f-2164-4ff1-bf81-323682b2579a",
        "meta": {
          "profile": [
            "http://hl7.org/fhir/StructureDefinition/vitalsigns"
          ]
        },
        "category": [
          {
            "coding": [
              {
                "system": "http://terminology.hl7.org/CodeSystem/observation-category",
                "code": "vital-signs",
                "display": "Vital Signs"
              }
            ]
          }
        ],
        "valueQuantity": {
          "value": 106,
          "code": "mm[Hg]",
          "unit": "mm[Hg]"
        },
        "text": {
          "status": "generated",
          "div": "<div xmlns=\"http://www.w3.org/1999/xhtml\"><table class=\"hl7__ips\"><tr><th>Vital Sign</th><th>Date</th><th>Measurement</th></tr><tr><td>Systolic Blood Pressure</td><td>19-Dec-2022</td><td>106 mm[Hg]</td></tr></table></div>"
        },
        "status": "final",
        "code": {
          "coding": [
            {
              "code": "8480-6",
              "system": "http://loinc.org",
              "display": "Systolic Blood Pressure"
            }
          ]
        },
        "subject": {
          "reference": "urn:uuid:c15a97b2-1401-4a0c-8db6-7c08ca76ff7a",
          "display": "Ana Belén Aguado"
        },
        "effectiveDateTime": "2022-12-19"
      }
    },
    {
      "fullUrl": "urn:uuid:4e03acc4-3316-4188-9845-d41a1a03333e",
      "resource": {
        "resourceType": "Observation",
        "id": "4e03acc4-3316-4188-9845-d41a1a03333e",
        "meta": {
          "profile": [
            "http://hl7.org/fhir/StructureDefinition/vitalsigns"
          ]
        },
        "category": [
          {
            "coding": [
              {
                "system": "http://terminology.hl7.org/CodeSystem/observation-category",
                "code": "vital-signs",
                "display": "Vital Signs"
              }
            ]
          }
        ],
        "valueQuantity": {
          "value": 97,
          "code": "/min",
          "unit": "/min"
        },
        "text": {
          "status": "generated",
          "div": "<div xmlns=\"http://www.w3.org/1999/xhtml\"><table class=\"hl7__ips\"><tr><th>Vital Sign</th><th>Date</th><th>Measurement</th></tr><tr><td>Heart rate</td><td>19-Dec-2022</td><td>97 /min</td></tr></table></div>"
        },
        "status": "final",
        "code": {
          "coding": [
            {
              "code": "8867-4",
              "system": "http://loinc.org",
              "display": "Heart rate"
            }
          ]
        },
        "subject": {
          "reference": "urn:uuid:c15a97b2-1401-4a0c-8db6-7c08ca76ff7a",
          "display": "Ana Belén Aguado"
        },
        "effectiveDateTime": "2022-12-19"
      }
    },
    {
      "fullUrl": "urn:uuid:97fb0c88-2c02-433b-9955-96d41b06506b",
      "resource": {
        "resourceType": "Observation",
        "id": "97fb0c88-2c02-433b-9955-96d41b06506b",
        "meta": {
          "profile": [
            "http://hl7.org/fhir/StructureDefinition/vitalsigns"
          ]
        },
        "category": [
          {
            "coding": [
              {
                "system": "http://terminology.hl7.org/CodeSystem/observation-category",
                "code": "vital-signs",
                "display": "Vital Signs"
              }
            ]
          }
        ],
        "valueQuantity": {
          "value": 14,
          "code": "/min",
          "unit": "/min"
        },
        "text": {
          "status": "generated",
          "div": "<div xmlns=\"http://www.w3.org/1999/xhtml\"><table class=\"hl7__ips\"><tr><th>Vital Sign</th><th>Date</th><th>Measurement</th></tr><tr><td>Respiratory rate</td><td>19-Dec-2022</td><td>14 /min</td></tr></table></div>"
        },
        "status": "final",
        "code": {
          "coding": [
            {
              "code": "9279-1",
              "system": "http://loinc.org",
              "display": "Respiratory rate"
            }
          ]
        },
        "subject": {
          "reference": "urn:uuid:c15a97b2-1401-4a0c-8db6-7c08ca76ff7a",
          "display": "Ana Belén Aguado"
        },
        "effectiveDateTime": "2022-12-19"
      }
    },
    {
      "fullUrl": "urn:uuid:3a40ae9b-141a-4dfa-9525-d4ffab46cad5",
      "resource": {
        "resourceType": "Observation",
        "id": "3a40ae9b-141a-4dfa-9525-d4ffab46cad5",
        "meta": {
          "profile": [
            "http://hl7.eu/fhir/laboratory/StructureDefinition/Observation-resultslab-eu-lab"
          ]
        },
        "performer": [
          {
            "display": "The Central European Lab"
          }
        ],
        "category": [
          {
            "coding": [
              {
                "system": "http://terminology.hl7.org/CodeSystem/observation-category",
                "code": "laboratory"
              }
            ]
          }
        ],
        "code": {
          "coding": [
            {
              "code": "4548-4",
              "system": "http://loinc.org",
              "display": "Hemoglobin A1c/Hemoglobin.total in Blood"
            }
          ],
          "text": "Hemoglobin A1c/Hemoglobin.total in Blood"
        },
        "valueQuantity": {
          "system": "http://unitsofmeasure.org",
          "value": 6.2,
          "unit": "%",
          "code": "%"
        },
        "referenceRange": [
          {
            "low": {
              "value": 4.8,
              "code": "%",
              "system": "http://unitsofmeasure.org"
            }
          },
          {
            "high": {
              "value": 5.7,
              "code": "%",
              "system": "http://unitsofmeasure.org"
            }
          }
        ],
        "interpretation": [
          {
            "coding": [
              {
                "code": "H",
                "system": "http://terminology.hl7.org/CodeSystem/v3-ObservationInterpretation",
                "display": "High"
              }
            ]
          }
        ],
        "text": {
          "status": "generated",
          "div": "<div xmlns=\"http://www.w3.org/1999/xhtml\"><table class=\"hl7__eu__lab__report\"><tr><th>Test</th><th>23-Dec-2024</th><th>Reference&#xA0;Range</th><th>Unit</th></tr><tr><td>Hemoglobin A1c/Hemoglobin.total in Blood</td><td>6.2</td><td>4.8 - 5.7</td><td>H</td><td>%</td></tr></table></div>"
        },
        "status": "final",
        "subject": {
          "reference": "urn:uuid:c15a97b2-1401-4a0c-8db6-7c08ca76ff7a",
          "display": "Ana Belén Aguado"
        },
        "effectiveDateTime": "2024-12-23T15:17:46Z"
      }
    },
    {
      "fullUrl": "urn:uuid:89d79657-2e1b-4bb7-8253-8300f4ddac03",
      "resource": {
        "resourceType": "Observation",
        "id": "89d79657-2e1b-4bb7-8253-8300f4ddac03",
        "meta": {
          "profile": [
            "http://hl7.eu/fhir/laboratory/StructureDefinition/Observation-resultslab-eu-lab"
          ]
        },
        "performer": [
          {
            "display": "The Central European Lab"
          }
        ],
        "category": [
          {
            "coding": [
              {
                "system": "http://terminology.hl7.org/CodeSystem/observation-category",
                "code": "laboratory"
              }
            ]
          }
        ],
        "code": {
          "coding": [
            {
              "code": "2339-0",
              "system": "http://loinc.org",
              "display": "Glucose [Mass/volume] in Blood"
            }
          ],
          "text": "Glucose [Mass/volume] in Blood"
        },
        "valueQuantity": {
          "system": "http://unitsofmeasure.org",
          "value": 90.1,
          "unit": "mg/dL",
          "code": "mg/dL"
        },
        "referenceRange": [
          {
            "low": {
              "value": 70,
              "code": "mg/dL",
              "system": "http://unitsofmeasure.org"
            }
          },
          {
            "high": {
              "value": 99,
              "code": "mg/dL",
              "system": "http://unitsofmeasure.org"
            }
          }
        ],
        "text": {
          "status": "generated",
          "div": "<div xmlns=\"http://www.w3.org/1999/xhtml\"><table class=\"hl7__eu__lab__report\"><tr><th>Test</th><th>23-Dec-2024</th><th>Reference&#xA0;Range</th><th>Unit</th></tr><tr><td>Glucose [Mass/volume] in Blood</td><td>90.1</td><td>70 - 99</td><td></td><td>mg/dL</td></tr></table></div>"
        },
        "status": "final",
        "subject": {
          "reference": "urn:uuid:c15a97b2-1401-4a0c-8db6-7c08ca76ff7a",
          "display": "Ana Belén Aguado"
        },
        "effectiveDateTime": "2024-12-23T15:17:46Z"
      }
    },
    {
      "fullUrl": "urn:uuid:a784d851-112d-46ed-bbfe-c6aa3cddf039",
      "resource": {
        "resourceType": "Observation",
        "id": "a784d851-112d-46ed-bbfe-c6aa3cddf039",
        "meta": {
          "profile": [
            "http://hl7.eu/fhir/laboratory/StructureDefinition/Observation-resultslab-eu-lab"
          ]
        },
        "performer": [
          {
            "display": "The Central European Lab"
          }
        ],
        "category": [
          {
            "coding": [
              {
                "system": "http://terminology.hl7.org/CodeSystem/observation-category",
                "code": "laboratory"
              }
            ]
          }
        ],
        "code": {
          "coding": [
            {
              "code": "6299-2",
              "system": "http://loinc.org",
              "display": "Urea nitrogen [Mass/volume] in Blood"
            }
          ],
          "text": "Urea nitrogen [Mass/volume] in Blood"
        },
        "valueQuantity": {
          "system": "http://unitsofmeasure.org",
          "value": 17.1,
          "unit": "mg/dL",
          "code": "mg/dL"
        },
        "referenceRange": [
          {
            "low": {
              "value": 7,
              "code": "mg/dL",
              "system": "http://unitsofmeasure.org"
            }
          },
          {
            "high": {
              "value": 43,
              "code": "mg/dL",
              "system": "http://unitsofmeasure.org"
            }
          }
        ],
        "text": {
          "status": "generated",
          "div": "<div xmlns=\"http://www.w3.org/1999/xhtml\"><table class=\"hl7__eu__lab__report\"><tr><th>Test</th><th>23-Dec-2024</th><th>Reference&#xA0;Range</th><th>Unit</th></tr><tr><td>Urea nitrogen [Mass/volume] in Blood</td><td>17.1</td><td>7 - 43</td><td></td><td>mg/dL</td></tr></table></div>"
        },
        "status": "final",
        "subject": {
          "reference": "urn:uuid:c15a97b2-1401-4a0c-8db6-7c08ca76ff7a",
          "display": "Ana Belén Aguado"
        },
        "effectiveDateTime": "2024-12-23T15:17:46Z"
      }
    },
    {
      "fullUrl": "urn:uuid:5f43399d-4b42-4941-8ba9-17c77b8b1a6f",
      "resource": {
        "resourceType": "Observation",
        "id": "5f43399d-4b42-4941-8ba9-17c77b8b1a6f",
        "meta": {
          "profile": [
            "http://hl7.eu/fhir/laboratory/StructureDefinition/Observation-resultslab-eu-lab"
          ]
        },
        "performer": [
          {
            "display": "The Central European Lab"
          }
        ],
        "category": [
          {
            "coding": [
              {
                "system": "http://terminology.hl7.org/CodeSystem/observation-category",
                "code": "laboratory"
              }
            ]
          }
        ],
        "code": {
          "coding": [
            {
              "code": "38483-4",
              "system": "http://loinc.org",
              "display": "Creatinine [Mass/volume] in Blood"
            }
          ],
          "text": "Creatinine [Mass/volume] in Blood"
        },
        "valueQuantity": {
          "system": "http://unitsofmeasure.org",
          "value": 0.9,
          "unit": "mg/dL",
          "code": "mg/dL"
        },
        "referenceRange": [
          {
            "low": {
              "value": 0.6,
              "code": "mg/dL",
              "system": "http://unitsofmeasure.org"
            }
          },
          {
            "high": {
              "value": 1.1,
              "code": "mg/dL",
              "system": "http://unitsofmeasure.org"
            }
          }
        ],
        "text": {
          "status": "generated",
          "div": "<div xmlns=\"http://www.w3.org/1999/xhtml\"><table class=\"hl7__eu__lab__report\"><tr><th>Test</th><th>23-Dec-2024</th><th>Reference&#xA0;Range</th><th>Unit</th></tr><tr><td>Creatinine [Mass/volume] in Blood</td><td>0.9</td><td>0.6 - 1.1</td><td></td><td>mg/dL</td></tr></table></div>"
        },
        "status": "final",
        "subject": {
          "reference": "urn:uuid:c15a97b2-1401-4a0c-8db6-7c08ca76ff7a",
          "display": "Ana Belén Aguado"
        },
        "effectiveDateTime": "2024-12-23T15:17:46Z"
      }
    },
    {
      "fullUrl": "urn:uuid:d3029878-489e-49c5-859c-04261345ca30",
      "resource": {
        "resourceType": "Observation",
        "id": "d3029878-489e-49c5-859c-04261345ca30",
        "meta": {
          "profile": [
            "http://hl7.eu/fhir/laboratory/StructureDefinition/Observation-resultslab-eu-lab"
          ]
        },
        "performer": [
          {
            "display": "The Central European Lab"
          }
        ],
        "category": [
          {
            "coding": [
              {
                "system": "http://terminology.hl7.org/CodeSystem/observation-category",
                "code": "laboratory"
              }
            ]
          }
        ],
        "code": {
          "coding": [
            {
              "code": "49765-1",
              "system": "http://loinc.org",
              "display": "Calcium [Mass/volume] in Blood"
            }
          ],
          "text": "Calcium [Mass/volume] in Blood"
        },
        "valueQuantity": {
          "system": "http://unitsofmeasure.org",
          "value": 10,
          "unit": "mg/dL",
          "code": "mg/dL"
        },
        "referenceRange": [
          {
            "low": {
              "value": 8.5,
              "code": "mg/dL",
              "system": "http://unitsofmeasure.org"
            }
          },
          {
            "high": {
              "value": 10.4,
              "code": "mg/dL",
              "system": "http://unitsofmeasure.org"
            }
          }
        ],
        "text": {
          "status": "generated",
          "div": "<div xmlns=\"http://www.w3.org/1999/xhtml\"><table class=\"hl7__eu__lab__report\"><tr><th>Test</th><th>23-Dec-2024</th><th>Reference&#xA0;Range</th><th>Unit</th></tr><tr><td>Calcium [Mass/volume] in Blood</td><td>10.0</td><td>8.5 - 10.4</td><td></td><td>mg/dL</td></tr></table></div>"
        },
        "status": "final",
        "subject": {
          "reference": "urn:uuid:c15a97b2-1401-4a0c-8db6-7c08ca76ff7a",
          "display": "Ana Belén Aguado"
        },
        "effectiveDateTime": "2024-12-23T15:17:46Z"
      }
    },
    {
      "fullUrl": "urn:uuid:7ae46a90-e079-4810-83a9-c58a67d8b742",
      "resource": {
        "resourceType": "Observation",
        "id": "7ae46a90-e079-4810-83a9-c58a67d8b742",
        "meta": {
          "profile": [
            "http://hl7.eu/fhir/laboratory/StructureDefinition/Observation-resultslab-eu-lab"
          ]
        },
        "performer": [
          {
            "display": "The Central European Lab"
          }
        ],
        "category": [
          {
            "coding": [
              {
                "system": "http://terminology.hl7.org/CodeSystem/observation-category",
                "code": "laboratory"
              }
            ]
          }
        ],
        "code": {
          "coding": [
            {
              "code": "2947-0",
              "system": "http://loinc.org",
              "display": "Sodium [Moles/volume] in Blood"
            }
          ],
          "text": "Sodium [Moles/volume] in Blood"
        },
        "valueQuantity": {
          "system": "http://unitsofmeasure.org",
          "value": 140.1,
          "unit": "mmol/L",
          "code": "mmol/L"
        },
        "referenceRange": [
          {
            "low": {
              "value": 135,
              "code": "mmol/L",
              "system": "http://unitsofmeasure.org"
            }
          },
          {
            "high": {
              "value": 145,
              "code": "mmol/L",
              "system": "http://unitsofmeasure.org"
            }
          }
        ],
        "text": {
          "status": "generated",
          "div": "<div xmlns=\"http://www.w3.org/1999/xhtml\"><table class=\"hl7__eu__lab__report\"><tr><th>Test</th><th>23-Dec-2024</th><th>Reference&#xA0;Range</th><th>Unit</th></tr><tr><td>Sodium [Moles/volume] in Blood</td><td>140.1</td><td>135 - 145</td><td></td><td>mmol/L</td></tr></table></div>"
        },
        "status": "final",
        "subject": {
          "reference": "urn:uuid:c15a97b2-1401-4a0c-8db6-7c08ca76ff7a",
          "display": "Ana Belén Aguado"
        },
        "effectiveDateTime": "2024-12-23T15:17:46Z"
      }
    },
    {
      "fullUrl": "urn:uuid:6081ce2f-56bf-4166-b91b-b6b8b8e5285c",
      "resource": {
        "resourceType": "Observation",
        "id": "6081ce2f-56bf-4166-b91b-b6b8b8e5285c",
        "meta": {
          "profile": [
            "http://hl7.eu/fhir/laboratory/StructureDefinition/Observation-resultslab-eu-lab"
          ]
        },
        "performer": [
          {
            "display": "The Central European Lab"
          }
        ],
        "category": [
          {
            "coding": [
              {
                "system": "http://terminology.hl7.org/CodeSystem/observation-category",
                "code": "laboratory"
              }
            ]
          }
        ],
        "code": {
          "coding": [
            {
              "code": "6298-4",
              "system": "http://loinc.org",
              "display": "Potassium [Moles/volume] in Blood"
            }
          ],
          "text": "Potassium [Moles/volume] in Blood"
        },
        "valueQuantity": {
          "system": "http://unitsofmeasure.org",
          "value": 4.2,
          "unit": "mmol/L",
          "code": "mmol/L"
        },
        "referenceRange": [
          {
            "low": {
              "value": 3.5,
              "code": "mmol/L",
              "system": "http://unitsofmeasure.org"
            }
          },
          {
            "high": {
              "value": 5.1,
              "code": "mmol/L",
              "system": "http://unitsofmeasure.org"
            }
          }
        ],
        "text": {
          "status": "generated",
          "div": "<div xmlns=\"http://www.w3.org/1999/xhtml\"><table class=\"hl7__eu__lab__report\"><tr><th>Test</th><th>23-Dec-2024</th><th>Reference&#xA0;Range</th><th>Unit</th></tr><tr><td>Potassium [Moles/volume] in Blood</td><td>4.2</td><td>3.5 - 5.1</td><td></td><td>mmol/L</td></tr></table></div>"
        },
        "status": "final",
        "subject": {
          "reference": "urn:uuid:c15a97b2-1401-4a0c-8db6-7c08ca76ff7a",
          "display": "Ana Belén Aguado"
        },
        "effectiveDateTime": "2024-12-23T15:17:46Z"
      }
    },
    {
      "fullUrl": "urn:uuid:2ebc2270-e899-4a76-9c55-efab247425aa",
      "resource": {
        "resourceType": "Observation",
        "id": "2ebc2270-e899-4a76-9c55-efab247425aa",
        "meta": {
          "profile": [
            "http://hl7.eu/fhir/laboratory/StructureDefinition/Observation-resultslab-eu-lab"
          ]
        },
        "performer": [
          {
            "display": "The Central European Lab"
          }
        ],
        "category": [
          {
            "coding": [
              {
                "system": "http://terminology.hl7.org/CodeSystem/observation-category",
                "code": "laboratory"
              }
            ]
          }
        ],
        "code": {
          "coding": [
            {
              "code": "2069-3",
              "system": "http://loinc.org",
              "display": "Chloride [Moles/volume] in Blood"
            }
          ],
          "text": "Chloride [Moles/volume] in Blood"
        },
        "valueQuantity": {
          "system": "http://unitsofmeasure.org",
          "value": 105.6,
          "unit": "mmol/L",
          "code": "mmol/L"
        },
        "referenceRange": [
          {
            "low": {
              "value": 98,
              "code": "mmol/L",
              "system": "http://unitsofmeasure.org"
            }
          },
          {
            "high": {
              "value": 108,
              "code": "mmol/L",
              "system": "http://unitsofmeasure.org"
            }
          }
        ],
        "text": {
          "status": "generated",
          "div": "<div xmlns=\"http://www.w3.org/1999/xhtml\"><table class=\"hl7__eu__lab__report\"><tr><th>Test</th><th>23-Dec-2024</th><th>Reference&#xA0;Range</th><th>Unit</th></tr><tr><td>Chloride [Moles/volume] in Blood</td><td>105.6</td><td>98 - 108</td><td></td><td>mmol/L</td></tr></table></div>"
        },
        "status": "final",
        "subject": {
          "reference": "urn:uuid:c15a97b2-1401-4a0c-8db6-7c08ca76ff7a",
          "display": "Ana Belén Aguado"
        },
        "effectiveDateTime": "2024-12-23T15:17:46Z"
      }
    },
    {
      "fullUrl": "urn:uuid:c7a57bca-27e9-435b-9b22-170fd77f3223",
      "resource": {
        "resourceType": "Observation",
        "id": "c7a57bca-27e9-435b-9b22-170fd77f3223",
        "meta": {
          "profile": [
            "http://hl7.eu/fhir/laboratory/StructureDefinition/Observation-resultslab-eu-lab"
          ]
        },
        "performer": [
          {
            "display": "The Central European Lab"
          }
        ],
        "category": [
          {
            "coding": [
              {
                "system": "http://terminology.hl7.org/CodeSystem/observation-category",
                "code": "laboratory"
              }
            ]
          }
        ],
        "code": {
          "coding": [
            {
              "code": "20565-8",
              "system": "http://loinc.org",
              "display": "Carbon dioxide, total [Moles/volume] in Blood"
            }
          ],
          "text": "Carbon dioxide, total [Moles/volume] in Blood"
        },
        "valueQuantity": {
          "system": "http://unitsofmeasure.org",
          "value": 22.2,
          "unit": "mmol/L",
          "code": "mmol/L"
        },
        "referenceRange": [
          {
            "low": {
              "value": 22,
              "code": "mmol/L",
              "system": "http://unitsofmeasure.org"
            }
          },
          {
            "high": {
              "value": 29,
              "code": "mmol/L",
              "system": "http://unitsofmeasure.org"
            }
          }
        ],
        "text": {
          "status": "generated",
          "div": "<div xmlns=\"http://www.w3.org/1999/xhtml\"><table class=\"hl7__eu__lab__report\"><tr><th>Test</th><th>23-Dec-2024</th><th>Reference&#xA0;Range</th><th>Unit</th></tr><tr><td>Carbon dioxide, total [Moles/volume] in Blood</td><td>22.2</td><td>22 - 29</td><td></td><td>mmol/L</td></tr></table></div>"
        },
        "status": "final",
        "subject": {
          "reference": "urn:uuid:c15a97b2-1401-4a0c-8db6-7c08ca76ff7a",
          "display": "Ana Belén Aguado"
        },
        "effectiveDateTime": "2024-12-23T15:17:46Z"
      }
    },
    {
      "fullUrl": "urn:uuid:9d2ea83a-2915-427e-b63a-c4864e0a4f44",
      "resource": {
        "resourceType": "DeviceUseStatement",
        "id": "9d2ea83a-2915-427e-b63a-c4864e0a4f44",
        "meta": {
          "profile": [
            "http://hl7.eu/fhir/eps/StructureDefinition/deviceUseStatement-eu-eps"
          ]
        },
        "timingPeriod": {
          "start": "2012-02-20"
        },
        "text": {
          "status": "generated",
          "div": "<div xmlns=\"http://www.w3.org/1999/xhtml\"><table class=\"hl7__ips\"><tr><td>Blood glucose meter (physical object)</td><td><span class=\"nb\">20-Feb-2012</span></td></tr></table></div>"
        },
        "status": "active",
        "device": {
          "reference": "urn:uuid:f1ba03f5-fdab-44f9-8c4e-aa2fd337b803",
          "display": "Blood glucose meter (physical object)"
        },
        "subject": {
          "reference": "urn:uuid:c15a97b2-1401-4a0c-8db6-7c08ca76ff7a",
          "display": "Ana Belén Aguado"
        }
      }
    },
    {
      "fullUrl": "urn:uuid:f1ba03f5-fdab-44f9-8c4e-aa2fd337b803",
      "resource": {
        "resourceType": "Device",
        "id": "f1ba03f5-fdab-44f9-8c4e-aa2fd337b803",
        "meta": {
          "profile": [
            "http://hl7.eu/fhir/eps/StructureDefinition/device-eu-eps"
          ]
        },
        "udiCarrier": [
          {
            "id": "(01)84702465813386(11)120130(17)370213(10)82184885348998(21)816905540"
          }
        ],
        "status": "active",
        "patient": {
          "reference": "urn:uuid:c15a97b2-1401-4a0c-8db6-7c08ca76ff7a",
          "display": "Ana Belén Aguado"
        },
        "type": {
          "coding": [
            {
              "code": "337414009",
              "system": "http://snomed.info/sct",
              "display": "Blood glucose meter (physical object)"
            }
          ]
        }
      }
    },
    {
      "fullUrl": "urn:uuid:e1924d35-4b78-4a7c-a55c-598bd84aa604",
      "resource": {
        "resourceType": "Device",
        "id": "e1924d35-4b78-4a7c-a55c-598bd84aa604",
        "deviceName": [
          {
            "name": "SYNDERAI Synthetic Generator",
            "type": "manufacturer-name"
          }
        ],
        "version": [
          {
            "value": "5.0"
          }
        ],
        "text": {
          "status": "generated",
          "div": "<div xmlns=\"http://www.w3.org/1999/xhtml\">SYNDERAI Synthetic Generator v5.0</div>"
        },
        "status": "active",
        "distinctIdentifier": "synderai-generator-50",
        "manufacturer": "SYNDERAI Project"
      }
    },
    {
      "fullUrl": "urn:uuid:377429fc-47e7-47a9-bb69-9b08ab717241",
      "resource": {
        "resourceType": "Provenance",
        "id": "377429fc-47e7-47a9-bb69-9b08ab717241",
        "target": [
          {
            "reference": "Patient/c15a97b2-1401-4a0c-8db6-7c08ca76ff7a"
          },
          {
            "reference": "Bundle/df293d48-2d6b-451f-b086-600b3fa2e326"
          },
          {
            "reference": "Composition/b477dd72-7c59-4ca4-b901-310752c78abf"
          },
          {
            "reference": "PractitionerRole/39f3445b-4170-4ed2-b024-cccdf99fc2b7"
          },
          {
            "reference": "Organization/34bc5d24-de4f-4a88-a6cb-66daf6fe8338"
          },
          {
            "reference": "Practitioner/194905f1-059a-4b0b-94f5-c8d64989041b"
          }
        ],
        "activity": {
          "text": "Synthetic Example Data Generation"
        },
        "policy": [
          "https://synderai.net/synderai-synthetic-data-policy"
        ],
        "agent": [
          {
            "type": {
              "text": "author"
            },
            "who": {
              "reference": "Device/e1924d35-4b78-4a7c-a55c-598bd84aa604"
            }
          }
        ],
        "reason": [
          {
            "text": "Interoperability Testing and Training (non-clinical use)"
          }
        ],
        "text": {
          "status": "generated",
          "div": "<div xmlns=\"http://www.w3.org/1999/xhtml\">Provenance for SYNDERAI Synthetic Example Data Resource</div>"
        },
        "recorded": "2024-12-23T15:17:46Z"
      }
    }
  ],
  "type": "document",
  "timestamp": "2024-12-23T15:17:46Z"
}
