{
  "resourceType": "Bundle",
  "id": "4827f36b-d23d-4a7d-aac0-f26d36b61a69",
  "meta": {
    "profile": [
      "http://hl7.eu/fhir/eps/StructureDefinition/bundle-eu-eps"
    ]
  },
  "identifier": {
    "assigner": {
      "display": "HL7 Europe"
    },
    "system": "urn:oid:2.16.840.1.113883.2.51.999",
    "value": "5d6fb6a9-7f48-4295-a001-994c6cf08be7"
  },
  "entry": [
    {
      "fullUrl": "urn:uuid:d79e2e1d-6af5-4a3a-bbb5-ee5feb452e58",
      "resource": {
        "resourceType": "Composition",
        "id": "d79e2e1d-6af5-4a3a-bbb5-ee5feb452e58",
        "meta": {
          "security": [
            {
              "system": "http://terminology.hl7.org/CodeSystem/v3-ActReason",
              "code": "HTEST"
            },
            {
              "system": "http://terminology.hl7.org/CodeSystem/v3-ActReason",
              "code": "TRAIN"
            }
          ],
          "tag": [
            {
              "system": "https://synderai.net/fhir/CodeSystem/tags",
              "code": "synthetic",
              "display": "SYNDERAI Synthetic data"
            }
          ],
          "profile": [
            "http://hl7.eu/fhir/eps/StructureDefinition/composition-eu-eps"
          ]
        },
        "identifier": {
          "assigner": {
            "display": "HL7 Europe"
          },
          "system": "urn:oid:2.16.840.1.113883.2.51.999",
          "value": "3e9b8b7a-de78-4402-8577-f5a2fafac012"
        },
        "type": {
          "coding": [
            {
              "code": "60591-5",
              "system": "http://loinc.org",
              "display": "Patient summary Document"
            }
          ],
          "text": "Patient summary Document"
        },
        "author": [
          {
            "reference": "urn:uuid:9fd3fcc9-b13f-4598-b94e-5d001d282196"
          }
        ],
        "section": [
          {
            "text": {
              "status": "generated",
              "div": "<div xmlns=\"http://www.w3.org/1999/xhtml\"><table class=\"hl7__ips\"><tr><th>Condition</th><th>Onset Date</th><th>Status</th></tr><tr><td>Chronic kidney disease stage 3</td><td><span class=\"nb\">11-Oct-2024</span></td><td>active</td></tr><tr><td>Proteinuria due to type 2 diabetes mellitus</td><td><span class=\"nb\">11-Oct-2024</span></td><td>active</td></tr><tr><td>Chronic kidney disease stage 2</td><td><span class=\"nb\">02-Oct-2015</span></td><td>active</td></tr><tr><td>Microalbuminuria due to type 2 diabetes mellitus</td><td><span class=\"nb\">02-Oct-2015</span></td><td>active</td></tr><tr><td>Disorder of kidney due to diabetes mellitus</td><td><span class=\"nb\">21-Aug-2015</span></td><td>active</td></tr><tr><td>Chronic kidney disease stage 1</td><td><span class=\"nb\">21-Aug-2015</span></td><td>active</td></tr><tr><td>Essential hypertension</td><td><span class=\"nb\">15-Aug-2014</span></td><td>active</td></tr><tr><td>Chronic sinusitis</td><td><span class=\"nb\">14-May-1991</span></td><td>active</td></tr></table></div>"
            },
            "entry": [
              {
                "reference": "urn:uuid:72fa2f90-5f9e-49b8-8b58-135d9db96ff7"
              }
            ],
            "code": {
              "coding": [
                {
                  "system": "http://loinc.org",
                  "code": "11450-4",
                  "display": "Problem list - Reported"
                }
              ]
            },
            "title": "Problem list"
          },
          {
            "text": {
              "status": "generated",
              "div": "<div xmlns=\"http://www.w3.org/1999/xhtml\"><table class=\"hl7__ips\"><tr><td>No known medications</td></tr></table></div>"
            },
            "entry": [
              {
                "reference": "urn:uuid:784a1de6-1c1f-4a0e-a5d2-2e727e7c348a"
              }
            ],
            "code": {
              "coding": [
                {
                  "system": "http://loinc.org",
                  "code": "10160-0",
                  "display": "History of Medication use Narrative"
                }
              ]
            },
            "title": "Medication list"
          },
          {
            "text": {
              "status": "generated",
              "div": "<div xmlns=\"http://www.w3.org/1999/xhtml\"><table class=\"hl7__ips\"><tr><th>Vaccine</th><th>Date</th></tr><tr><td>Influenza virus antigen only vaccine product</td><td><span class=\"nb\">17-May-2024</span></td></tr><tr><td>SARS-CoV-2 mRNA vaccine</td><td><span class=\"nb\">04-Jun-2021</span></td></tr><tr><td>Clostridium tetani toxoid antigen adsorbed only vaccine product</td><td><span class=\"nb\">13-Sep-2019</span></td></tr><tr><td>Live attenuated Human alphaherpesvirus 3 only vaccine product</td><td><span class=\"nb\">12-Jul-2019</span></td></tr></table></div>"
            },
            "entry": [
              {
                "reference": "urn:uuid:76386007-a3d6-489a-a9bb-be45e5f8cad0"
              }
            ],
            "code": {
              "coding": [
                {
                  "system": "http://loinc.org",
                  "code": "11369-6",
                  "display": "History of Immunization note"
                }
              ]
            },
            "title": "Immunizations list"
          },
          {
            "text": {
              "status": "generated",
              "div": "<div xmlns=\"http://www.w3.org/1999/xhtml\"><table class=\"hl7__ips\"><tr><th>Procedure</th><th>Date</th><th>Reason</th></tr><tr><td>Depression screening</td><td><span class=\"nb\">22-Sep-2023</span></td><td>-</td></tr><tr><td>Assessment of health and social care needs</td><td><span class=\"nb\">22-Sep-2023</span></td><td>-</td></tr><tr><td>Assessment using AUDIT-C (Alcohol Use Disorders Identification Test - Consumption)</td><td><span class=\"nb\">22-Sep-2023</span></td><td>-</td></tr><tr><td>Assessment of substance use</td><td><span class=\"nb\">22-Sep-2023</span></td><td>-</td></tr><tr><td>Depression screening using Patient Health Questionnaire Two-Item score (procedure)</td><td><span class=\"nb\">22-Sep-2023</span></td><td>-</td></tr><tr><td>Assessment of anxiety</td><td><span class=\"nb\">01-Sep-2023</span></td><td>-</td></tr><tr><td>Screening for drug abuse</td><td><span class=\"nb\">01-Sep-2023</span></td><td>-</td></tr><tr><td>Pre-discharge assessment</td><td><span class=\"nb\">03-Jul-2023</span></td><td>-</td></tr><tr><td>Discharge from skilled nursing facility (procedure)</td><td><span class=\"nb\">03-Jul-2023</span></td><td>-</td></tr><tr><td>Nursing care/supplementary surveillance</td><td><span class=\"nb\">02-Jul-2023</span></td><td>-</td></tr><tr><td>Physical therapy procedure</td><td><span class=\"nb\">01-Jul-2023</span></td><td>-</td></tr><tr><td>Professional / ancillary services care</td><td><span class=\"nb\">01-Jul-2023</span></td><td>-</td></tr><tr><td>Occupational therapy</td><td><span class=\"nb\">28-Jun-2023</span></td><td>-</td></tr><tr><td>Care regimes assessment</td><td><span class=\"nb\">29-May-2023</span></td><td>-</td></tr><tr><td>History AND physical examination</td><td><span class=\"nb\">26-May-2023</span></td><td>-</td></tr><tr><td>Initial patient assessment</td><td><span class=\"nb\">26-May-2023</span></td><td>-</td></tr><tr><td>Development of individualized plan of care</td><td><span class=\"nb\">26-May-2023</span></td><td>-</td></tr><tr><td>Suture open wound</td><td><span class=\"nb\">28-Jul-2018</span></td><td>Laceration of foot</td></tr><tr><td>Medication reconciliation</td><td><span class=\"nb\">07-Jul-2017</span></td><td>-</td></tr><tr><td>Screening for domestic abuse</td><td><span class=\"nb\">07-Jul-2017</span></td><td>-</td></tr></table></div>"
            },
            "entry": [
              {
                "reference": "urn:uuid:98f0b236-eb95-4aa0-82c4-88a7c30672b9"
              }
            ],
            "code": {
              "coding": [
                {
                  "system": "http://loinc.org",
                  "code": "47519-4",
                  "display": "History of Procedures Document"
                }
              ]
            },
            "title": "Procedure History list"
          },
          {
            "text": {
              "status": "generated",
              "div": "<div xmlns=\"http://www.w3.org/1999/xhtml\"><table class=\"hl7__ips\"><tr><th>Allergy/Intolerance</th><th>Onset Date</th><th>Status</th><th>Type</th><th>Reaction</th></tr><tr><td></td><td>?</td><td>active</td><td>?</td><td></td></tr></table></div>"
            },
            "entry": [
              {
                "reference": "urn:uuid:c620038b-f689-4fcb-8a0b-c440d945717f"
              }
            ],
            "code": {
              "coding": [
                {
                  "system": "http://loinc.org",
                  "code": "48765-2",
                  "display": "Allergies and adverse reactions Document"
                }
              ]
            },
            "title": "Allergies and Intolerances"
          },
          {
            "text": {
              "status": "generated",
              "div": "<div xmlns=\"http://www.w3.org/1999/xhtml\"><table class=\"hl7__ips\"><tr><th>Active Planned Care / Goals</th><th>Start Date</th><th>Reason</th></tr><tr><td>Lifestyle education regarding hypertension</td><td><span class=\"nb\">15-Aug-2014</span></td><td>Essential hypertension (disorder)</td></tr><tr><td><ul><li>Maintain blood pressure below 130/80 mmHg through lifestyle modifications.</li></ul></td><td></td><td></td></tr><tr><td>Routine antenatal care</td><td><span class=\"nb\">02-Jan-2004</span></td><td>-</td></tr><tr><td>Weight management program</td><td><span class=\"nb\">29-Jul-1977</span></td><td>-</td></tr></table></div>"
            },
            "title": "Care Plan",
            "code": {
              "coding": [
                {
                  "code": "18776-5",
                  "system": "http://loinc.org",
                  "display": "Plan of care note"
                }
              ]
            }
          },
          {
            "text": {
              "status": "generated",
              "div": "<div xmlns=\"http://www.w3.org/1999/xhtml\"><table class=\"hl7__ips\"><tr><th>Vital Signs</th><th>2025-01-10</th><th>2024-12-13</th></tr><tr><td>Body Height</td><td>169.5 cm</td><td>169.5 cm</td></tr><tr><td>Pain severity - 0-10 verbal numeric rating [Score] - Reported</td><td>3 {score}</td><td>1 {score}</td></tr><tr><td>Body Weight</td><td>84.8 kg</td><td>84.8 kg</td></tr><tr><td>Body mass index (BMI) [Ratio]</td><td>29.5 kg/m2</td><td>29.5 kg/m2</td></tr><tr><td>Diastolic Blood Pressure</td><td>72 mm[Hg]</td><td>70 mm[Hg]</td></tr><tr><td>Systolic Blood Pressure</td><td>115 mm[Hg]</td><td>114 mm[Hg]</td></tr><tr><td>Heart rate</td><td>99 /min</td><td>70 /min</td></tr><tr><td>Respiratory rate</td><td>13 /min</td><td>14 /min</td></tr></table></div>"
            },
            "entry": [
              {
                "reference": "urn:uuid:0c02490d-f4ad-4aa5-a299-0eedc4ebc75b"
              }
            ],
            "code": {
              "coding": [
                {
                  "system": "http://loinc.org",
                  "code": "8716-3",
                  "display": "Vital signs note"
                }
              ]
            },
            "title": "Vital Signs"
          },
          {
            "text": {
              "status": "generated",
              "div": "<div xmlns=\"http://www.w3.org/1999/xhtml\"><table class=\"hl7__ips\"><table class=\"hl7__ips\"><thead><tr><th>Recent Lab Observations</th><th>10-JAN-2025</th><th>Reference&#xA0;Range</th><th>Unit</th></tr></thead><tbody><tr><td>Glucose [Mass/volume] in Serum or Plasma</td><td><strong>64.2 L</strong></td><td>70 - 139</td><td>mg/dL</td></tr><tr><td>Urea nitrogen [Mass/volume] in Serum or Plasma</td><td>9.9</td><td>7 - 20</td><td>mg/dL</td></tr><tr><td>Creatinine [Mass/volume] in Serum or Plasma</td><td><strong>1.9 H</strong></td><td>0.6 - 1.1</td><td>mg/dL</td></tr><tr><td>Calcium [Mass/volume] in Serum or Plasma</td><td>8.9</td><td>8.4 - 10.3</td><td>mg/dL</td></tr><tr><td>Sodium [Moles/volume] in Serum or Plasma</td><td>141.0</td><td>135 - 145</td><td>mmol/L</td></tr><tr><td>Potassium [Moles/volume] in Serum or Plasma</td><td>4.4</td><td>3.5 - 5.1</td><td>mmol/L</td></tr><tr><td>Chloride [Moles/volume] in Serum or Plasma</td><td>105.3</td><td>98 - 108</td><td>mmol/L</td></tr><tr><td>Carbon dioxide, total [Moles/volume] in Serum or Plasma</td><td>28.5</td><td>22 - 32</td><td>mmol/L</td></tr><tr><td>Appearance of Urine</td><td>Cloudy urine</td><td></td><td></td></tr><tr><td>Odor of Urine</td><td>Urine smell ammoniacal</td><td></td><td></td></tr><tr><td>Clarity of Urine</td><td>Translucent</td><td></td><td></td></tr><tr><td>Color of Urine</td><td>Brown color</td><td></td><td></td></tr><tr><td>Glucose [Mass/volume] in Urine by Test strip</td><td><strong>1.4 H</strong></td><td>0 - 0.8</td><td>mg/dL</td></tr><tr><td>Glucose [Presence] in Urine by Test strip</td><td>++</td><td></td><td></td></tr><tr><td>Bilirubin.total [Mass/volume] in Urine by Test strip</td><td>0.9</td><td>0 - 1</td><td>mg/dL</td></tr><tr><td>Bilirubin.total [Presence] in Urine by Test strip</td><td>Finding of bilirubin in urine</td><td></td><td></td></tr><tr><td>Ketones [Mass/volume] in Urine by Test strip</td><td>8.7</td><td>0 - 20</td><td>mg/dL</td></tr><tr><td>Ketones [Presence] in Urine by Test strip</td><td>Urine ketone test = ++</td><td></td><td></td></tr><tr><td>Specific gravity of Urine by Test strip</td><td><strong>1.0 L</strong></td><td>1.005 - 1.03</td><td>{nominal}</td></tr><tr><td>pH of Urine by Test strip</td><td>5.4</td><td>4.6 - 7</td><td>pH</td></tr><tr><td>Protein [Mass/volume] in Urine by Test strip</td><td><strong>282.9 H</strong></td><td>0 - 14</td><td>mg/dL</td></tr><tr><td>Protein [Presence] in Urine by Test strip</td><td>Urine protein test = ++</td><td></td><td></td></tr><tr><td>Nitrite [Presence] in Urine by Test strip</td><td>Urine nitrite negative</td><td></td><td></td></tr><tr><td>Hemoglobin [Presence] in Urine by Test strip</td><td>Urine blood test = negative</td><td></td><td></td></tr><tr><td>Leukocyte esterase [Presence] in Urine by Test strip</td><td>Urine leukocyte test negative</td><td></td><td></td></tr></tbody></table></table></div>"
            },
            "title": "Relevant diagnostic tests/laboratory data",
            "code": {
              "coding": [
                {
                  "code": "30954-2",
                  "system": "http://loinc.org",
                  "display": "Relevant diagnostic tests/laboratory data note"
                }
              ]
            }
          },
          {
            "text": {
              "status": "generated",
              "div": "<div xmlns=\"http://www.w3.org/1999/xhtml\"><table class=\"hl7__ips\"><tr><th>Device</th><th>Date (since)</th></tr><tr><td>Home nebulizer (physical object)</td><td><span class=\"nb\">14-May-1991</span></td></tr></table></div>"
            },
            "entry": [
              {
                "reference": "urn:uuid:5f592008-0982-4415-bd79-77ead945922e"
              }
            ],
            "code": {
              "coding": [
                {
                  "system": "http://loinc.org",
                  "code": "46264-8",
                  "display": "History of medical device use"
                }
              ]
            },
            "title": "Device Use"
          }
        ],
        "title": "European Patient Summary",
        "status": "final",
        "subject": {
          "reference": "urn:uuid:1cd83a11-c9ab-4df9-908e-9cf57363e1dc",
          "display": "Bettina Sauro"
        },
        "custodian": {
          "reference": "urn:uuid:6607815f-45d2-425e-aab1-1b84e2206c36"
        },
        "date": "2025-01-10",
        "confidentiality": "N"
      }
    },
    {
      "fullUrl": "urn:uuid:1cd83a11-c9ab-4df9-908e-9cf57363e1dc",
      "resource": {
        "resourceType": "Patient",
        "id": "1cd83a11-c9ab-4df9-908e-9cf57363e1dc",
        "meta": {
          "security": [
            {
              "system": "http://terminology.hl7.org/CodeSystem/v3-ActReason",
              "code": "HTEST"
            },
            {
              "system": "http://terminology.hl7.org/CodeSystem/v3-ActReason",
              "code": "TRAIN"
            }
          ],
          "tag": [
            {
              "system": "https://synderai.net/fhir/CodeSystem/tags",
              "code": "synthetic",
              "display": "SYNDERAI Synthetic data"
            }
          ],
          "profile": [
            "http://hl7.eu/fhir/eps/StructureDefinition/patient-eu-eps"
          ]
        },
        "identifier": [
          {
            "type": {
              "coding": [
                {
                  "code": "PT",
                  "system": "http://terminology.hl7.org/CodeSystem/v2-0203"
                }
              ]
            },
            "system": "http://ec.europa.eu/identifier/eci",
            "value": "2539-349435-3"
          },
          {
            "type": {
              "coding": [
                {
                  "code": "MR",
                  "system": "http://terminology.hl7.org/CodeSystem/v2-0203"
                }
              ]
            },
            "system": "http://local.setting.eu/identifier",
            "value": "5ebb3559-a7f6-7827-dd85-960e4453269e"
          }
        ],
        "name": [
          {
            "given": [
              "Bettina"
            ],
            "family": "Sauro",
            "text": "Bettina Sauro"
          }
        ],
        "address": [
          {
            "line": [
              "Vicolo Armando, 946"
            ],
            "use": "home",
            "type": "physical",
            "postalCode": "02010",
            "city": "Borgo Quinzio",
            "country": "Italy"
          }
        ],
        "telecom": [
          {
            "system": "phone",
            "value": "35000572370"
          }
        ],
        "extension": [
          {
            "url": "http://hl7.org/fhir/StructureDefinition/patient-nationality",
            "valueCodeableConcept": {
              "coding": [
                {
                  "code": "IT",
                  "system": "http://hl7.org/fhir/ValueSet/country"
                }
              ]
            }
          }
        ],
        "text": {
          "status": "generated",
          "div": "<div xmlns=\"http://www.w3.org/1999/xhtml\"><table class=\"hl7__ips\"><tr><td>Bettina Sauro</td><td>female</td><td>20-Nov-1972</td></tr></table></div>"
        },
        "gender": "female",
        "birthDate": "1972-11-20"
      }
    },
    {
      "fullUrl": "urn:uuid:9fd3fcc9-b13f-4598-b94e-5d001d282196",
      "resource": {
        "resourceType": "PractitionerRole",
        "id": "9fd3fcc9-b13f-4598-b94e-5d001d282196",
        "meta": {
          "profile": [
            "http://hl7.eu/fhir/base/StructureDefinition/practitionerRole-eu"
          ]
        },
        "text": {
          "status": "generated",
          "div": "<div xmlns=\"http://www.w3.org/1999/xhtml\"><table class=\"hl7__ips\">Provider Role Id 9fd3fcc9-b13f-4598-b94e-5d001d282196</table></div>"
        },
        "practitioner": {
          "reference": "urn:uuid:c39ea82d-3cd4-4e8d-bf81-7d020287f018"
        },
        "organization": {
          "reference": "urn:uuid:6607815f-45d2-425e-aab1-1b84e2206c36"
        }
      }
    },
    {
      "fullUrl": "urn:uuid:6607815f-45d2-425e-aab1-1b84e2206c36",
      "resource": {
        "resourceType": "Organization",
        "id": "6607815f-45d2-425e-aab1-1b84e2206c36",
        "meta": {
          "profile": [
            "http://hl7.eu/fhir/base/StructureDefinition/organization-eu"
          ]
        },
        "identifier": [
          {
            "assigner": {
              "display": "HL7 Europe"
            },
            "system": "urn:oid:2.16.840.1.113883.2.51.999",
            "value": "11d8e23f-5af3-46a2-95aa-f3d3434745d0"
          }
        ],
        "address": [
          {
            "city": "Poggio Mirteto",
            "postalCode": "02047",
            "country": "Italy"
          }
        ],
        "text": {
          "status": "generated",
          "div": "<div xmlns=\"http://www.w3.org/1999/xhtml\"><table class=\"hl7__ips\">ASL</table></div>"
        },
        "name": "ASL"
      }
    },
    {
      "fullUrl": "urn:uuid:c39ea82d-3cd4-4e8d-bf81-7d020287f018",
      "resource": {
        "resourceType": "Practitioner",
        "id": "c39ea82d-3cd4-4e8d-bf81-7d020287f018",
        "meta": {
          "profile": [
            "http://hl7.eu/fhir/base/StructureDefinition/practitioner-eu"
          ]
        },
        "name": [
          {
            "prefix": [
              "Dr."
            ],
            "given": [
              "Hel"
            ],
            "family": "Ping"
          }
        ],
        "text": {
          "status": "generated",
          "div": "<div xmlns=\"http://www.w3.org/1999/xhtml\"><table class=\"hl7__ips\">Dr. Hel Ping</table></div>"
        }
      }
    },
    {
      "fullUrl": "urn:uuid:72fa2f90-5f9e-49b8-8b58-135d9db96ff7",
      "resource": {
        "resourceType": "Condition",
        "id": "72fa2f90-5f9e-49b8-8b58-135d9db96ff7",
        "meta": {
          "profile": [
            "http://hl7.org/fhir/uv/ips/StructureDefinition/Condition-uv-ips"
          ]
        },
        "category": [
          {
            "coding": [
              {
                "code": "problem-list-item",
                "system": "http://terminology.hl7.org/CodeSystem/condition-category",
                "display": "Problem List Item"
              }
            ]
          }
        ],
        "code": {
          "coding": [
            {
              "code": "433144002",
              "system": "http://snomed.info/sct",
              "display": "Chronic kidney disease stage 3 (disorder)"
            }
          ],
          "text": "Chronic kidney disease stage 3"
        },
        "text": {
          "status": "generated",
          "div": "<div xmlns=\"http://www.w3.org/1999/xhtml\"><table class=\"hl7__ips\"><tr><td>Chronic kidney disease stage 3</td><td><span class=\"nb\">11-Oct-2024</span></td><td>active</td></tr></table></div>"
        },
        "onsetDateTime": "2024-10-11",
        "subject": {
          "reference": "urn:uuid:1cd83a11-c9ab-4df9-908e-9cf57363e1dc",
          "display": "Bettina Sauro"
        },
        "asserter": {
          "reference": "urn:uuid:9fd3fcc9-b13f-4598-b94e-5d001d282196",
          "display": "ASL"
        }
      }
    },
    {
      "fullUrl": "urn:uuid:2ad5c12f-d820-4510-98e6-89539aca91a9",
      "resource": {
        "resourceType": "Condition",
        "id": "2ad5c12f-d820-4510-98e6-89539aca91a9",
        "meta": {
          "profile": [
            "http://hl7.org/fhir/uv/ips/StructureDefinition/Condition-uv-ips"
          ]
        },
        "category": [
          {
            "coding": [
              {
                "code": "problem-list-item",
                "system": "http://terminology.hl7.org/CodeSystem/condition-category",
                "display": "Problem List Item"
              }
            ]
          }
        ],
        "code": {
          "coding": [
            {
              "code": "157141000119108",
              "system": "http://snomed.info/sct",
              "display": "Proteinuria due to type 2 diabetes mellitus (disorder)"
            }
          ],
          "text": "Proteinuria due to type 2 diabetes mellitus"
        },
        "text": {
          "status": "generated",
          "div": "<div xmlns=\"http://www.w3.org/1999/xhtml\"><table class=\"hl7__ips\"><tr><td>Proteinuria due to type 2 diabetes mellitus</td><td><span class=\"nb\">11-Oct-2024</span></td><td>active</td></tr></table></div>"
        },
        "onsetDateTime": "2024-10-11",
        "subject": {
          "reference": "urn:uuid:1cd83a11-c9ab-4df9-908e-9cf57363e1dc",
          "display": "Bettina Sauro"
        },
        "asserter": {
          "reference": "urn:uuid:9fd3fcc9-b13f-4598-b94e-5d001d282196",
          "display": "ASL"
        }
      }
    },
    {
      "fullUrl": "urn:uuid:c8e83b8c-5b97-4df4-bada-b288d7efd1b1",
      "resource": {
        "resourceType": "Condition",
        "id": "c8e83b8c-5b97-4df4-bada-b288d7efd1b1",
        "meta": {
          "profile": [
            "http://hl7.org/fhir/uv/ips/StructureDefinition/Condition-uv-ips"
          ]
        },
        "category": [
          {
            "coding": [
              {
                "code": "problem-list-item",
                "system": "http://terminology.hl7.org/CodeSystem/condition-category",
                "display": "Problem List Item"
              }
            ]
          }
        ],
        "code": {
          "coding": [
            {
              "code": "431856006",
              "system": "http://snomed.info/sct",
              "display": "Chronic kidney disease stage 2 (disorder)"
            }
          ],
          "text": "Chronic kidney disease stage 2"
        },
        "text": {
          "status": "generated",
          "div": "<div xmlns=\"http://www.w3.org/1999/xhtml\"><table class=\"hl7__ips\"><tr><td>Chronic kidney disease stage 2</td><td><span class=\"nb\">02-Oct-2015</span></td><td>active</td></tr></table></div>"
        },
        "onsetDateTime": "2015-10-02",
        "subject": {
          "reference": "urn:uuid:1cd83a11-c9ab-4df9-908e-9cf57363e1dc",
          "display": "Bettina Sauro"
        },
        "asserter": {
          "reference": "urn:uuid:9fd3fcc9-b13f-4598-b94e-5d001d282196",
          "display": "ASL"
        }
      }
    },
    {
      "fullUrl": "urn:uuid:7869ad7b-bda1-4601-b277-7d254c5495f7",
      "resource": {
        "resourceType": "Condition",
        "id": "7869ad7b-bda1-4601-b277-7d254c5495f7",
        "meta": {
          "profile": [
            "http://hl7.org/fhir/uv/ips/StructureDefinition/Condition-uv-ips"
          ]
        },
        "category": [
          {
            "coding": [
              {
                "code": "problem-list-item",
                "system": "http://terminology.hl7.org/CodeSystem/condition-category",
                "display": "Problem List Item"
              }
            ]
          }
        ],
        "code": {
          "coding": [
            {
              "code": "90781000119102",
              "system": "http://snomed.info/sct",
              "display": "Microalbuminuria due to type 2 diabetes mellitus (disorder)"
            }
          ],
          "text": "Microalbuminuria due to type 2 diabetes mellitus"
        },
        "text": {
          "status": "generated",
          "div": "<div xmlns=\"http://www.w3.org/1999/xhtml\"><table class=\"hl7__ips\"><tr><td>Microalbuminuria due to type 2 diabetes mellitus</td><td><span class=\"nb\">02-Oct-2015</span></td><td>active</td></tr></table></div>"
        },
        "onsetDateTime": "2015-10-02",
        "subject": {
          "reference": "urn:uuid:1cd83a11-c9ab-4df9-908e-9cf57363e1dc",
          "display": "Bettina Sauro"
        },
        "asserter": {
          "reference": "urn:uuid:9fd3fcc9-b13f-4598-b94e-5d001d282196",
          "display": "ASL"
        }
      }
    },
    {
      "fullUrl": "urn:uuid:44465ce6-4ca7-4057-a3f7-687949511779",
      "resource": {
        "resourceType": "Condition",
        "id": "44465ce6-4ca7-4057-a3f7-687949511779",
        "meta": {
          "profile": [
            "http://hl7.org/fhir/uv/ips/StructureDefinition/Condition-uv-ips"
          ]
        },
        "category": [
          {
            "coding": [
              {
                "code": "problem-list-item",
                "system": "http://terminology.hl7.org/CodeSystem/condition-category",
                "display": "Problem List Item"
              }
            ]
          }
        ],
        "code": {
          "coding": [
            {
              "code": "127013003",
              "system": "http://snomed.info/sct",
              "display": "Disorder of kidney due to diabetes mellitus (disorder)"
            }
          ],
          "text": "Disorder of kidney due to diabetes mellitus"
        },
        "text": {
          "status": "generated",
          "div": "<div xmlns=\"http://www.w3.org/1999/xhtml\"><table class=\"hl7__ips\"><tr><td>Disorder of kidney due to diabetes mellitus</td><td><span class=\"nb\">21-Aug-2015</span></td><td>active</td></tr></table></div>"
        },
        "onsetDateTime": "2015-08-21",
        "subject": {
          "reference": "urn:uuid:1cd83a11-c9ab-4df9-908e-9cf57363e1dc",
          "display": "Bettina Sauro"
        },
        "asserter": {
          "reference": "urn:uuid:9fd3fcc9-b13f-4598-b94e-5d001d282196",
          "display": "ASL"
        }
      }
    },
    {
      "fullUrl": "urn:uuid:90737634-2eee-4872-b5a9-767206e21f5c",
      "resource": {
        "resourceType": "Condition",
        "id": "90737634-2eee-4872-b5a9-767206e21f5c",
        "meta": {
          "profile": [
            "http://hl7.org/fhir/uv/ips/StructureDefinition/Condition-uv-ips"
          ]
        },
        "category": [
          {
            "coding": [
              {
                "code": "problem-list-item",
                "system": "http://terminology.hl7.org/CodeSystem/condition-category",
                "display": "Problem List Item"
              }
            ]
          }
        ],
        "code": {
          "coding": [
            {
              "code": "431855005",
              "system": "http://snomed.info/sct",
              "display": "Chronic kidney disease stage 1 (disorder)"
            }
          ],
          "text": "Chronic kidney disease stage 1"
        },
        "text": {
          "status": "generated",
          "div": "<div xmlns=\"http://www.w3.org/1999/xhtml\"><table class=\"hl7__ips\"><tr><td>Chronic kidney disease stage 1</td><td><span class=\"nb\">21-Aug-2015</span></td><td>active</td></tr></table></div>"
        },
        "onsetDateTime": "2015-08-21",
        "subject": {
          "reference": "urn:uuid:1cd83a11-c9ab-4df9-908e-9cf57363e1dc",
          "display": "Bettina Sauro"
        },
        "asserter": {
          "reference": "urn:uuid:9fd3fcc9-b13f-4598-b94e-5d001d282196",
          "display": "ASL"
        }
      }
    },
    {
      "fullUrl": "urn:uuid:a01e8191-2c31-4ef6-b9bb-f44e5bb11e12",
      "resource": {
        "resourceType": "Condition",
        "id": "a01e8191-2c31-4ef6-b9bb-f44e5bb11e12",
        "meta": {
          "profile": [
            "http://hl7.org/fhir/uv/ips/StructureDefinition/Condition-uv-ips"
          ]
        },
        "category": [
          {
            "coding": [
              {
                "code": "problem-list-item",
                "system": "http://terminology.hl7.org/CodeSystem/condition-category",
                "display": "Problem List Item"
              }
            ]
          }
        ],
        "code": {
          "coding": [
            {
              "code": "59621000",
              "system": "http://snomed.info/sct",
              "display": "Essential hypertension (disorder)"
            }
          ],
          "text": "Essential hypertension"
        },
        "text": {
          "status": "generated",
          "div": "<div xmlns=\"http://www.w3.org/1999/xhtml\"><table class=\"hl7__ips\"><tr><td>Essential hypertension</td><td><span class=\"nb\">15-Aug-2014</span></td><td>active</td></tr></table></div>"
        },
        "onsetDateTime": "2014-08-15",
        "subject": {
          "reference": "urn:uuid:1cd83a11-c9ab-4df9-908e-9cf57363e1dc",
          "display": "Bettina Sauro"
        },
        "asserter": {
          "reference": "urn:uuid:9fd3fcc9-b13f-4598-b94e-5d001d282196",
          "display": "ASL"
        }
      }
    },
    {
      "fullUrl": "urn:uuid:249feeb8-e894-4b63-a17d-c9f232f52959",
      "resource": {
        "resourceType": "Condition",
        "id": "249feeb8-e894-4b63-a17d-c9f232f52959",
        "meta": {
          "profile": [
            "http://hl7.org/fhir/uv/ips/StructureDefinition/Condition-uv-ips"
          ]
        },
        "category": [
          {
            "coding": [
              {
                "code": "problem-list-item",
                "system": "http://terminology.hl7.org/CodeSystem/condition-category",
                "display": "Problem List Item"
              }
            ]
          }
        ],
        "code": {
          "coding": [
            {
              "code": "40055000",
              "system": "http://snomed.info/sct",
              "display": "Chronic sinusitis (disorder)"
            }
          ],
          "text": "Chronic sinusitis"
        },
        "text": {
          "status": "generated",
          "div": "<div xmlns=\"http://www.w3.org/1999/xhtml\"><table class=\"hl7__ips\"><tr><td>Chronic sinusitis</td><td><span class=\"nb\">14-May-1991</span></td><td>active</td></tr></table></div>"
        },
        "onsetDateTime": "1991-05-14",
        "subject": {
          "reference": "urn:uuid:1cd83a11-c9ab-4df9-908e-9cf57363e1dc",
          "display": "Bettina Sauro"
        },
        "asserter": {
          "reference": "urn:uuid:9fd3fcc9-b13f-4598-b94e-5d001d282196",
          "display": "ASL"
        }
      }
    },
    {
      "fullUrl": "urn:uuid:ac1b79dc-b845-41c4-8922-b468d1de96df",
      "resource": {
        "resourceType": "Condition",
        "id": "ac1b79dc-b845-41c4-8922-b468d1de96df",
        "meta": {
          "profile": [
            "http://hl7.org/fhir/uv/ips/StructureDefinition/Condition-uv-ips"
          ]
        },
        "category": [
          {
            "coding": [
              {
                "code": "problem-list-item",
                "system": "http://terminology.hl7.org/CodeSystem/condition-category",
                "display": "Problem List Item"
              }
            ]
          }
        ],
        "code": {
          "coding": [
            {
              "code": "444814009",
              "system": "http://snomed.info/sct",
              "display": "Viral sinusitis (disorder)"
            }
          ],
          "text": "Viral sinusitis"
        },
        "text": {
          "status": "generated",
          "div": "<div xmlns=\"http://www.w3.org/1999/xhtml\"><table class=\"hl7__ips\"><tr><td><span class=\"grayedout\">Viral sinusitis</span></td><td><span class=\"nb\">15-Sep-2023 - 25-Sep-2023</span></td><td><span class=\"grayedout\">inactive</span></td></tr></table></div>"
        },
        "onsetDateTime": "2023-09-15",
        "abatementDateTime": "2023-09-25",
        "subject": {
          "reference": "urn:uuid:1cd83a11-c9ab-4df9-908e-9cf57363e1dc",
          "display": "Bettina Sauro"
        },
        "asserter": {
          "reference": "urn:uuid:9fd3fcc9-b13f-4598-b94e-5d001d282196",
          "display": "ASL"
        }
      }
    },
    {
      "fullUrl": "urn:uuid:0f49b2b9-9552-47b3-ab4c-b033f16f9c75",
      "resource": {
        "resourceType": "Condition",
        "id": "0f49b2b9-9552-47b3-ab4c-b033f16f9c75",
        "meta": {
          "profile": [
            "http://hl7.org/fhir/uv/ips/StructureDefinition/Condition-uv-ips"
          ]
        },
        "category": [
          {
            "coding": [
              {
                "code": "problem-list-item",
                "system": "http://terminology.hl7.org/CodeSystem/condition-category",
                "display": "Problem List Item"
              }
            ]
          }
        ],
        "code": {
          "coding": [
            {
              "code": "403190006",
              "system": "http://snomed.info/sct",
              "display": "Epidermal burn of skin (disorder)"
            }
          ],
          "text": "Epidermal burn of skin"
        },
        "text": {
          "status": "generated",
          "div": "<div xmlns=\"http://www.w3.org/1999/xhtml\"><table class=\"hl7__ips\"><tr><td><span class=\"grayedout\">Epidermal burn of skin</span></td><td><span class=\"nb\">26-May-2023 - 26-Jul-2023</span></td><td><span class=\"grayedout\">inactive</span></td></tr></table></div>"
        },
        "onsetDateTime": "2023-05-26",
        "abatementDateTime": "2023-07-26",
        "subject": {
          "reference": "urn:uuid:1cd83a11-c9ab-4df9-908e-9cf57363e1dc",
          "display": "Bettina Sauro"
        },
        "asserter": {
          "reference": "urn:uuid:9fd3fcc9-b13f-4598-b94e-5d001d282196",
          "display": "ASL"
        }
      }
    },
    {
      "fullUrl": "urn:uuid:afa29b05-46cb-4aac-aac6-80155281f753",
      "resource": {
        "resourceType": "Condition",
        "id": "afa29b05-46cb-4aac-aac6-80155281f753",
        "meta": {
          "profile": [
            "http://hl7.org/fhir/uv/ips/StructureDefinition/Condition-uv-ips"
          ]
        },
        "category": [
          {
            "coding": [
              {
                "code": "problem-list-item",
                "system": "http://terminology.hl7.org/CodeSystem/condition-category",
                "display": "Problem List Item"
              }
            ]
          }
        ],
        "code": {
          "coding": [
            {
              "code": "284551006",
              "system": "http://snomed.info/sct",
              "display": "Laceration of foot (disorder)"
            }
          ],
          "text": "Laceration of foot"
        },
        "text": {
          "status": "generated",
          "div": "<div xmlns=\"http://www.w3.org/1999/xhtml\"><table class=\"hl7__ips\"><tr><td><span class=\"grayedout\">Laceration of foot</span></td><td><span class=\"nb\">28-Jul-2018 - 22-Aug-2018</span></td><td><span class=\"grayedout\">inactive</span></td></tr></table></div>"
        },
        "onsetDateTime": "2018-07-28",
        "abatementDateTime": "2018-08-22",
        "subject": {
          "reference": "urn:uuid:1cd83a11-c9ab-4df9-908e-9cf57363e1dc",
          "display": "Bettina Sauro"
        },
        "asserter": {
          "reference": "urn:uuid:9fd3fcc9-b13f-4598-b94e-5d001d282196",
          "display": "ASL"
        }
      }
    },
    {
      "fullUrl": "urn:uuid:a82dcf5d-b2d8-40aa-94cf-67b2d3599b44",
      "resource": {
        "resourceType": "Condition",
        "id": "a82dcf5d-b2d8-40aa-94cf-67b2d3599b44",
        "meta": {
          "profile": [
            "http://hl7.org/fhir/uv/ips/StructureDefinition/Condition-uv-ips"
          ]
        },
        "category": [
          {
            "coding": [
              {
                "code": "problem-list-item",
                "system": "http://terminology.hl7.org/CodeSystem/condition-category",
                "display": "Problem List Item"
              }
            ]
          }
        ],
        "code": {
          "coding": [
            {
              "code": "312608009",
              "system": "http://snomed.info/sct",
              "display": "Laceration - injury (disorder)"
            }
          ],
          "text": "Laceration - injury"
        },
        "text": {
          "status": "generated",
          "div": "<div xmlns=\"http://www.w3.org/1999/xhtml\"><table class=\"hl7__ips\"><tr><td><span class=\"grayedout\">Laceration - injury</span></td><td><span class=\"nb\">28-Jul-2018 - 22-Aug-2018</span></td><td><span class=\"grayedout\">inactive</span></td></tr></table></div>"
        },
        "onsetDateTime": "2018-07-28",
        "abatementDateTime": "2018-08-22",
        "subject": {
          "reference": "urn:uuid:1cd83a11-c9ab-4df9-908e-9cf57363e1dc",
          "display": "Bettina Sauro"
        },
        "asserter": {
          "reference": "urn:uuid:9fd3fcc9-b13f-4598-b94e-5d001d282196",
          "display": "ASL"
        }
      }
    },
    {
      "fullUrl": "urn:uuid:659d7efd-2d8c-41c0-bcfa-f523d84bef5c",
      "resource": {
        "resourceType": "Condition",
        "id": "659d7efd-2d8c-41c0-bcfa-f523d84bef5c",
        "meta": {
          "profile": [
            "http://hl7.org/fhir/uv/ips/StructureDefinition/Condition-uv-ips"
          ]
        },
        "category": [
          {
            "coding": [
              {
                "code": "problem-list-item",
                "system": "http://terminology.hl7.org/CodeSystem/condition-category",
                "display": "Problem List Item"
              }
            ]
          }
        ],
        "code": {
          "coding": [
            {
              "code": "444814009",
              "system": "http://snomed.info/sct",
              "display": "Viral sinusitis (disorder)"
            }
          ],
          "text": "Viral sinusitis"
        },
        "text": {
          "status": "generated",
          "div": "<div xmlns=\"http://www.w3.org/1999/xhtml\"><table class=\"hl7__ips\"><tr><td><span class=\"grayedout\">Viral sinusitis</span></td><td><span class=\"nb\">16-Jun-2017 - 09-Jul-2017</span></td><td><span class=\"grayedout\">inactive</span></td></tr></table></div>"
        },
        "onsetDateTime": "2017-06-16",
        "abatementDateTime": "2017-07-09",
        "subject": {
          "reference": "urn:uuid:1cd83a11-c9ab-4df9-908e-9cf57363e1dc",
          "display": "Bettina Sauro"
        },
        "asserter": {
          "reference": "urn:uuid:9fd3fcc9-b13f-4598-b94e-5d001d282196",
          "display": "ASL"
        }
      }
    },
    {
      "fullUrl": "urn:uuid:784a1de6-1c1f-4a0e-a5d2-2e727e7c348a",
      "resource": {
        "resourceType": "MedicationStatement",
        "id": "784a1de6-1c1f-4a0e-a5d2-2e727e7c348a",
        "meta": {
          "profile": [
            "http://hl7.eu/fhir/eps/StructureDefinition/MedicationStatement-eu-eps"
          ]
        },
        "effectivePeriod": {
          "extension": [
            {
              "url": "http://hl7.org/fhir/StructureDefinition/data-absent-reason",
              "valueCode": "unknown"
            }
          ]
        },
        "status": "active",
        "medicationCodeableConcept": {
          "coding": [
            {
              "code": "787481004",
              "system": "http://snomed.info/sct",
              "display": "No known medications (situation)"
            }
          ]
        },
        "subject": {
          "reference": "urn:uuid:1cd83a11-c9ab-4df9-908e-9cf57363e1dc",
          "display": "Bettina Sauro"
        }
      }
    },
    {
      "fullUrl": "urn:uuid:76386007-a3d6-489a-a9bb-be45e5f8cad0",
      "resource": {
        "resourceType": "Immunization",
        "id": "76386007-a3d6-489a-a9bb-be45e5f8cad0",
        "meta": {
          "profile": [
            "http://hl7.org/fhir/uv/ips/StructureDefinition/Immunization-uv-ips"
          ]
        },
        "vaccineCode": {
          "coding": [
            {
              "code": "1181000221105",
              "system": "http://snomed.info/sct",
              "display": "Vaccine product containing Influenza virus antigen"
            },
            {
              "code": "J07BB02",
              "system": "http://www.whocc.no/atc",
              "display": "Influenza, inactivated, split virus"
            }
          ],
          "text": "Influenza virus antigen only vaccine product"
        },
        "site": {
          "coding": [
            {
              "code": "244979005",
              "system": "http://snomed.info/sct",
              "display": "Entire muscle of upper arm"
            }
          ],
          "text": "Entire muscle of upper arm"
        },
        "route": {
          "coding": [
            {
              "code": "78421000",
              "system": "http://snomed.info/sct",
              "display": "Intramuscular route"
            }
          ],
          "text": "Intramuscular route"
        },
        "text": {
          "status": "generated",
          "div": "<div xmlns=\"http://www.w3.org/1999/xhtml\"><table class=\"hl7__ips\"><tr><td>Influenza virus antigen only vaccine product</td><td><span class=\"nb\">17-May-2024</span></td></tr></table></div>"
        },
        "status": "completed",
        "patient": {
          "reference": "urn:uuid:1cd83a11-c9ab-4df9-908e-9cf57363e1dc",
          "display": "Bettina Sauro"
        },
        "occurrenceDateTime": "2024-05-17",
        "lotNumber": "YI-CPm4878m",
        "expirationDate": "2025-01-11"
      }
    },
    {
      "fullUrl": "urn:uuid:b3639bec-3fe0-4e2a-a1df-ee6db4307229",
      "resource": {
        "resourceType": "Immunization",
        "id": "b3639bec-3fe0-4e2a-a1df-ee6db4307229",
        "meta": {
          "profile": [
            "http://hl7.org/fhir/uv/ips/StructureDefinition/Immunization-uv-ips"
          ]
        },
        "vaccineCode": {
          "coding": [
            {
              "code": "1119349007",
              "system": "http://snomed.info/sct",
              "display": "Vaccine product containing SARS-CoV-2 mRNA"
            },
            {
              "code": "J07BX03",
              "system": "http://www.whocc.no/atc",
              "display": "COVID-19 mRNA vaccines"
            }
          ],
          "text": "SARS-CoV-2 mRNA vaccine"
        },
        "site": {
          "coding": [
            {
              "code": "244979005",
              "system": "http://snomed.info/sct",
              "display": "Entire muscle of upper arm"
            }
          ],
          "text": "Entire muscle of upper arm"
        },
        "route": {
          "coding": [
            {
              "code": "78421000",
              "system": "http://snomed.info/sct",
              "display": "Intramuscular route"
            }
          ],
          "text": "Intramuscular route"
        },
        "text": {
          "status": "generated",
          "div": "<div xmlns=\"http://www.w3.org/1999/xhtml\"><table class=\"hl7__ips\"><tr><td>SARS-CoV-2 mRNA vaccine</td><td><span class=\"nb\">04-Jun-2021</span></td></tr></table></div>"
        },
        "status": "completed",
        "patient": {
          "reference": "urn:uuid:1cd83a11-c9ab-4df9-908e-9cf57363e1dc",
          "display": "Bettina Sauro"
        },
        "occurrenceDateTime": "2021-06-04",
        "lotNumber": "IQ-cy6cb",
        "expirationDate": "2022-03-06"
      }
    },
    {
      "fullUrl": "urn:uuid:290a6571-e83f-4bc7-97a8-b7d37b3de163",
      "resource": {
        "resourceType": "Immunization",
        "id": "290a6571-e83f-4bc7-97a8-b7d37b3de163",
        "meta": {
          "profile": [
            "http://hl7.org/fhir/uv/ips/StructureDefinition/Immunization-uv-ips"
          ]
        },
        "vaccineCode": {
          "coding": [
            {
              "code": "777725002",
              "system": "http://snomed.info/sct",
              "display": "Vaccine product containing only Clostridium tetani toxoid antigen adsorbed"
            },
            {
              "code": "J07AM51",
              "system": "http://www.whocc.no/atc",
              "display": "Diphtheria-tetanus vaccines, adult type"
            }
          ],
          "text": "Clostridium tetani toxoid antigen adsorbed only vaccine product"
        },
        "site": {
          "coding": [
            {
              "code": "244979005",
              "system": "http://snomed.info/sct",
              "display": "Entire muscle of upper arm"
            }
          ],
          "text": "Entire muscle of upper arm"
        },
        "route": {
          "coding": [
            {
              "code": "78421000",
              "system": "http://snomed.info/sct",
              "display": "Intramuscular route"
            }
          ],
          "text": "Intramuscular route"
        },
        "text": {
          "status": "generated",
          "div": "<div xmlns=\"http://www.w3.org/1999/xhtml\"><table class=\"hl7__ips\"><tr><td>Clostridium tetani toxoid antigen adsorbed only vaccine product</td><td><span class=\"nb\">13-Sep-2019</span></td></tr></table></div>"
        },
        "status": "completed",
        "patient": {
          "reference": "urn:uuid:1cd83a11-c9ab-4df9-908e-9cf57363e1dc",
          "display": "Bettina Sauro"
        },
        "occurrenceDateTime": "2019-09-13",
        "lotNumber": "BD-HJ7a",
        "expirationDate": "2019-10-21"
      }
    },
    {
      "fullUrl": "urn:uuid:74cb60e3-8223-4102-94a9-82c28d545b77",
      "resource": {
        "resourceType": "Immunization",
        "id": "74cb60e3-8223-4102-94a9-82c28d545b77",
        "meta": {
          "profile": [
            "http://hl7.org/fhir/uv/ips/StructureDefinition/Immunization-uv-ips"
          ]
        },
        "vaccineCode": {
          "coding": [
            {
              "code": "2221000221107",
              "system": "http://snomed.info/sct",
              "display": "Live attenuated Varicella-zoster vaccine"
            },
            {
              "code": "J07BK02",
              "system": "http://www.whocc.no/atc",
              "display": "Varicella-zoster vaccines"
            }
          ],
          "text": "Live attenuated Human alphaherpesvirus 3 only vaccine product"
        },
        "site": {
          "coding": [
            {
              "code": "368208006",
              "system": "http://snomed.info/sct",
              "display": "Left upper arm structure"
            }
          ],
          "text": "Left upper arm structure"
        },
        "route": {
          "coding": [
            {
              "code": "34206005",
              "system": "http://snomed.info/sct",
              "display": "Subcutaneous route"
            }
          ],
          "text": "Subcutaneous route"
        },
        "text": {
          "status": "generated",
          "div": "<div xmlns=\"http://www.w3.org/1999/xhtml\"><table class=\"hl7__ips\"><tr><td>Live attenuated Human alphaherpesvirus 3 only vaccine product</td><td><span class=\"nb\">12-Jul-2019</span></td></tr></table></div>"
        },
        "status": "completed",
        "patient": {
          "reference": "urn:uuid:1cd83a11-c9ab-4df9-908e-9cf57363e1dc",
          "display": "Bettina Sauro"
        },
        "occurrenceDateTime": "2019-07-12",
        "lotNumber": "CC-B10n8X7",
        "expirationDate": "2019-11-12"
      }
    },
    {
      "fullUrl": "urn:uuid:98f0b236-eb95-4aa0-82c4-88a7c30672b9",
      "resource": {
        "resourceType": "Procedure",
        "id": "98f0b236-eb95-4aa0-82c4-88a7c30672b9",
        "meta": {
          "profile": [
            "http://hl7.org/fhir/uv/ips/StructureDefinition/Procedure-uv-ips"
          ]
        },
        "code": {
          "coding": [
            {
              "code": "171207006",
              "system": "http://snomed.info/sct",
              "display": "Depression screening (procedure)"
            }
          ],
          "text": "Depression screening"
        },
        "text": {
          "status": "generated",
          "div": "<div xmlns=\"http://www.w3.org/1999/xhtml\"><table class=\"hl7__ips\"><tr><td>Depression screening</td><td><span class=\"nb\">22-Sep-2023</span></td><td>-</td></tr></table></div>"
        },
        "status": "completed",
        "performedDateTime": "2023-09-22",
        "subject": {
          "reference": "urn:uuid:1cd83a11-c9ab-4df9-908e-9cf57363e1dc",
          "display": "Bettina Sauro"
        }
      }
    },
    {
      "fullUrl": "urn:uuid:ac0a2d2e-3582-4255-bd1b-78584aaf9fed",
      "resource": {
        "resourceType": "Procedure",
        "id": "ac0a2d2e-3582-4255-bd1b-78584aaf9fed",
        "meta": {
          "profile": [
            "http://hl7.org/fhir/uv/ips/StructureDefinition/Procedure-uv-ips"
          ]
        },
        "code": {
          "coding": [
            {
              "code": "710824005",
              "system": "http://snomed.info/sct",
              "display": "Assessment of health and social care needs (procedure)"
            }
          ],
          "text": "Assessment of health and social care needs"
        },
        "text": {
          "status": "generated",
          "div": "<div xmlns=\"http://www.w3.org/1999/xhtml\"><table class=\"hl7__ips\"><tr><td>Assessment of health and social care needs</td><td><span class=\"nb\">22-Sep-2023</span></td><td>-</td></tr></table></div>"
        },
        "status": "completed",
        "performedDateTime": "2023-09-22",
        "subject": {
          "reference": "urn:uuid:1cd83a11-c9ab-4df9-908e-9cf57363e1dc",
          "display": "Bettina Sauro"
        }
      }
    },
    {
      "fullUrl": "urn:uuid:42827e92-2afb-4959-821e-078ee745348d",
      "resource": {
        "resourceType": "Procedure",
        "id": "42827e92-2afb-4959-821e-078ee745348d",
        "meta": {
          "profile": [
            "http://hl7.org/fhir/uv/ips/StructureDefinition/Procedure-uv-ips"
          ]
        },
        "code": {
          "coding": [
            {
              "code": "763302001",
              "system": "http://snomed.info/sct",
              "display": "Assessment using Alcohol Use Disorders Identification Test - Consumption (procedure)"
            }
          ],
          "text": "Assessment using AUDIT-C (Alcohol Use Disorders Identification Test - Consumption)"
        },
        "text": {
          "status": "generated",
          "div": "<div xmlns=\"http://www.w3.org/1999/xhtml\"><table class=\"hl7__ips\"><tr><td>Assessment using AUDIT-C (Alcohol Use Disorders Identification Test - Consumption)</td><td><span class=\"nb\">22-Sep-2023</span></td><td>-</td></tr></table></div>"
        },
        "status": "completed",
        "performedDateTime": "2023-09-22",
        "subject": {
          "reference": "urn:uuid:1cd83a11-c9ab-4df9-908e-9cf57363e1dc",
          "display": "Bettina Sauro"
        }
      }
    },
    {
      "fullUrl": "urn:uuid:cb408c89-6b70-4288-9420-906cb4891bf6",
      "resource": {
        "resourceType": "Procedure",
        "id": "cb408c89-6b70-4288-9420-906cb4891bf6",
        "meta": {
          "profile": [
            "http://hl7.org/fhir/uv/ips/StructureDefinition/Procedure-uv-ips"
          ]
        },
        "code": {
          "coding": [
            {
              "code": "428211000124100",
              "system": "http://snomed.info/sct",
              "display": "Assessment of substance use (procedure)"
            }
          ],
          "text": "Assessment of substance use"
        },
        "text": {
          "status": "generated",
          "div": "<div xmlns=\"http://www.w3.org/1999/xhtml\"><table class=\"hl7__ips\"><tr><td>Assessment of substance use</td><td><span class=\"nb\">22-Sep-2023</span></td><td>-</td></tr></table></div>"
        },
        "status": "completed",
        "performedDateTime": "2023-09-22",
        "subject": {
          "reference": "urn:uuid:1cd83a11-c9ab-4df9-908e-9cf57363e1dc",
          "display": "Bettina Sauro"
        }
      }
    },
    {
      "fullUrl": "urn:uuid:0f606eef-3c2a-4894-ad0d-dffe8265ba34",
      "resource": {
        "resourceType": "Procedure",
        "id": "0f606eef-3c2a-4894-ad0d-dffe8265ba34",
        "meta": {
          "profile": [
            "http://hl7.org/fhir/uv/ips/StructureDefinition/Procedure-uv-ips"
          ]
        },
        "code": {
          "coding": [
            {
              "code": "454711000124102",
              "system": "http://snomed.info/sct",
              "display": "Depression screening using Patient Health Questionnaire Two-Item score (procedure)"
            }
          ]
        },
        "text": {
          "status": "generated",
          "div": "<div xmlns=\"http://www.w3.org/1999/xhtml\"><table class=\"hl7__ips\"><tr><td>Depression screening using Patient Health Questionnaire Two-Item score (procedure)</td><td><span class=\"nb\">22-Sep-2023</span></td><td>-</td></tr></table></div>"
        },
        "status": "completed",
        "performedDateTime": "2023-09-22",
        "subject": {
          "reference": "urn:uuid:1cd83a11-c9ab-4df9-908e-9cf57363e1dc",
          "display": "Bettina Sauro"
        }
      }
    },
    {
      "fullUrl": "urn:uuid:17783e3b-19b2-4221-b777-53c9328e6eac",
      "resource": {
        "resourceType": "Procedure",
        "id": "17783e3b-19b2-4221-b777-53c9328e6eac",
        "meta": {
          "profile": [
            "http://hl7.org/fhir/uv/ips/StructureDefinition/Procedure-uv-ips"
          ]
        },
        "code": {
          "coding": [
            {
              "code": "710841007",
              "system": "http://snomed.info/sct",
              "display": "Assessment of anxiety (procedure)"
            }
          ],
          "text": "Assessment of anxiety"
        },
        "text": {
          "status": "generated",
          "div": "<div xmlns=\"http://www.w3.org/1999/xhtml\"><table class=\"hl7__ips\"><tr><td>Assessment of anxiety</td><td><span class=\"nb\">01-Sep-2023</span></td><td>-</td></tr></table></div>"
        },
        "status": "completed",
        "performedDateTime": "2023-09-01",
        "subject": {
          "reference": "urn:uuid:1cd83a11-c9ab-4df9-908e-9cf57363e1dc",
          "display": "Bettina Sauro"
        }
      }
    },
    {
      "fullUrl": "urn:uuid:ee81503a-18b3-4b20-b9f0-e7fa6b143c8b",
      "resource": {
        "resourceType": "Procedure",
        "id": "ee81503a-18b3-4b20-b9f0-e7fa6b143c8b",
        "meta": {
          "profile": [
            "http://hl7.org/fhir/uv/ips/StructureDefinition/Procedure-uv-ips"
          ]
        },
        "code": {
          "coding": [
            {
              "code": "713106006",
              "system": "http://snomed.info/sct",
              "display": "Screening for drug abuse (procedure)"
            }
          ],
          "text": "Screening for drug abuse"
        },
        "text": {
          "status": "generated",
          "div": "<div xmlns=\"http://www.w3.org/1999/xhtml\"><table class=\"hl7__ips\"><tr><td>Screening for drug abuse</td><td><span class=\"nb\">01-Sep-2023</span></td><td>-</td></tr></table></div>"
        },
        "status": "completed",
        "performedDateTime": "2023-09-01",
        "subject": {
          "reference": "urn:uuid:1cd83a11-c9ab-4df9-908e-9cf57363e1dc",
          "display": "Bettina Sauro"
        }
      }
    },
    {
      "fullUrl": "urn:uuid:5de8904a-4bdc-4247-b0c8-c8a7d23a111e",
      "resource": {
        "resourceType": "Procedure",
        "id": "5de8904a-4bdc-4247-b0c8-c8a7d23a111e",
        "meta": {
          "profile": [
            "http://hl7.org/fhir/uv/ips/StructureDefinition/Procedure-uv-ips"
          ]
        },
        "code": {
          "coding": [
            {
              "code": "225386006",
              "system": "http://snomed.info/sct",
              "display": "Pre-discharge assessment (procedure)"
            }
          ],
          "text": "Pre-discharge assessment"
        },
        "text": {
          "status": "generated",
          "div": "<div xmlns=\"http://www.w3.org/1999/xhtml\"><table class=\"hl7__ips\"><tr><td>Pre-discharge assessment</td><td><span class=\"nb\">03-Jul-2023</span></td><td>-</td></tr></table></div>"
        },
        "status": "completed",
        "performedDateTime": "2023-07-03",
        "subject": {
          "reference": "urn:uuid:1cd83a11-c9ab-4df9-908e-9cf57363e1dc",
          "display": "Bettina Sauro"
        }
      }
    },
    {
      "fullUrl": "urn:uuid:f5f0e5a4-1d12-4682-8b00-fafa2ff37b58",
      "resource": {
        "resourceType": "Procedure",
        "id": "f5f0e5a4-1d12-4682-8b00-fafa2ff37b58",
        "meta": {
          "profile": [
            "http://hl7.org/fhir/uv/ips/StructureDefinition/Procedure-uv-ips"
          ]
        },
        "code": {
          "coding": [
            {
              "code": "449381000124108",
              "system": "http://snomed.info/sct",
              "display": "Discharge from skilled nursing facility (procedure)"
            }
          ]
        },
        "text": {
          "status": "generated",
          "div": "<div xmlns=\"http://www.w3.org/1999/xhtml\"><table class=\"hl7__ips\"><tr><td>Discharge from skilled nursing facility (procedure)</td><td><span class=\"nb\">03-Jul-2023</span></td><td>-</td></tr></table></div>"
        },
        "status": "completed",
        "performedDateTime": "2023-07-03",
        "subject": {
          "reference": "urn:uuid:1cd83a11-c9ab-4df9-908e-9cf57363e1dc",
          "display": "Bettina Sauro"
        }
      }
    },
    {
      "fullUrl": "urn:uuid:f5c778bc-8822-4545-8d97-5ddd10ee4c9d",
      "resource": {
        "resourceType": "Procedure",
        "id": "f5c778bc-8822-4545-8d97-5ddd10ee4c9d",
        "meta": {
          "profile": [
            "http://hl7.org/fhir/uv/ips/StructureDefinition/Procedure-uv-ips"
          ]
        },
        "code": {
          "coding": [
            {
              "code": "410401003",
              "system": "http://snomed.info/sct",
              "display": "Nursing care/supplementary surveillance (regime/therapy)"
            }
          ],
          "text": "Nursing care/supplementary surveillance"
        },
        "text": {
          "status": "generated",
          "div": "<div xmlns=\"http://www.w3.org/1999/xhtml\"><table class=\"hl7__ips\"><tr><td>Nursing care/supplementary surveillance</td><td><span class=\"nb\">02-Jul-2023</span></td><td>-</td></tr></table></div>"
        },
        "status": "completed",
        "performedDateTime": "2023-07-02",
        "subject": {
          "reference": "urn:uuid:1cd83a11-c9ab-4df9-908e-9cf57363e1dc",
          "display": "Bettina Sauro"
        }
      }
    },
    {
      "fullUrl": "urn:uuid:34b3d5e5-b10d-447c-ba11-fad6ddbb08e3",
      "resource": {
        "resourceType": "Procedure",
        "id": "34b3d5e5-b10d-447c-ba11-fad6ddbb08e3",
        "meta": {
          "profile": [
            "http://hl7.org/fhir/uv/ips/StructureDefinition/Procedure-uv-ips"
          ]
        },
        "code": {
          "coding": [
            {
              "code": "91251008",
              "system": "http://snomed.info/sct",
              "display": "Physical therapy procedure (regime/therapy)"
            }
          ],
          "text": "Physical therapy procedure"
        },
        "text": {
          "status": "generated",
          "div": "<div xmlns=\"http://www.w3.org/1999/xhtml\"><table class=\"hl7__ips\"><tr><td>Physical therapy procedure</td><td><span class=\"nb\">01-Jul-2023</span></td><td>-</td></tr></table></div>"
        },
        "status": "completed",
        "performedDateTime": "2023-07-01",
        "subject": {
          "reference": "urn:uuid:1cd83a11-c9ab-4df9-908e-9cf57363e1dc",
          "display": "Bettina Sauro"
        }
      }
    },
    {
      "fullUrl": "urn:uuid:00d6d9a1-774a-450b-9272-7ba3a3bf3320",
      "resource": {
        "resourceType": "Procedure",
        "id": "00d6d9a1-774a-450b-9272-7ba3a3bf3320",
        "meta": {
          "profile": [
            "http://hl7.org/fhir/uv/ips/StructureDefinition/Procedure-uv-ips"
          ]
        },
        "code": {
          "coding": [
            {
              "code": "409023009",
              "system": "http://snomed.info/sct",
              "display": "Professional / ancillary services care (regime/therapy)"
            }
          ],
          "text": "Professional / ancillary services care"
        },
        "text": {
          "status": "generated",
          "div": "<div xmlns=\"http://www.w3.org/1999/xhtml\"><table class=\"hl7__ips\"><tr><td>Professional / ancillary services care</td><td><span class=\"nb\">01-Jul-2023</span></td><td>-</td></tr></table></div>"
        },
        "status": "completed",
        "performedDateTime": "2023-07-01",
        "subject": {
          "reference": "urn:uuid:1cd83a11-c9ab-4df9-908e-9cf57363e1dc",
          "display": "Bettina Sauro"
        }
      }
    },
    {
      "fullUrl": "urn:uuid:71619d01-b105-49f0-bdac-7841fb7482f8",
      "resource": {
        "resourceType": "Procedure",
        "id": "71619d01-b105-49f0-bdac-7841fb7482f8",
        "meta": {
          "profile": [
            "http://hl7.org/fhir/uv/ips/StructureDefinition/Procedure-uv-ips"
          ]
        },
        "code": {
          "coding": [
            {
              "code": "84478008",
              "system": "http://snomed.info/sct",
              "display": "Occupational therapy (regime/therapy)"
            }
          ],
          "text": "Occupational therapy"
        },
        "text": {
          "status": "generated",
          "div": "<div xmlns=\"http://www.w3.org/1999/xhtml\"><table class=\"hl7__ips\"><tr><td>Occupational therapy</td><td><span class=\"nb\">28-Jun-2023</span></td><td>-</td></tr></table></div>"
        },
        "status": "completed",
        "performedDateTime": "2023-06-28",
        "subject": {
          "reference": "urn:uuid:1cd83a11-c9ab-4df9-908e-9cf57363e1dc",
          "display": "Bettina Sauro"
        }
      }
    },
    {
      "fullUrl": "urn:uuid:b62a5f39-fd26-4d46-8b18-de33c83e5497",
      "resource": {
        "resourceType": "Procedure",
        "id": "b62a5f39-fd26-4d46-8b18-de33c83e5497",
        "meta": {
          "profile": [
            "http://hl7.org/fhir/uv/ips/StructureDefinition/Procedure-uv-ips"
          ]
        },
        "code": {
          "coding": [
            {
              "code": "392091000",
              "system": "http://snomed.info/sct",
              "display": "Care regimes assessment (procedure)"
            }
          ],
          "text": "Care regimes assessment"
        },
        "text": {
          "status": "generated",
          "div": "<div xmlns=\"http://www.w3.org/1999/xhtml\"><table class=\"hl7__ips\"><tr><td>Care regimes assessment</td><td><span class=\"nb\">29-May-2023</span></td><td>-</td></tr></table></div>"
        },
        "status": "completed",
        "performedDateTime": "2023-05-29",
        "subject": {
          "reference": "urn:uuid:1cd83a11-c9ab-4df9-908e-9cf57363e1dc",
          "display": "Bettina Sauro"
        }
      }
    },
    {
      "fullUrl": "urn:uuid:ca4aeb02-7488-4efb-b265-ae501f18e700",
      "resource": {
        "resourceType": "Procedure",
        "id": "ca4aeb02-7488-4efb-b265-ae501f18e700",
        "meta": {
          "profile": [
            "http://hl7.org/fhir/uv/ips/StructureDefinition/Procedure-uv-ips"
          ]
        },
        "code": {
          "coding": [
            {
              "code": "63332003",
              "system": "http://snomed.info/sct",
              "display": "History AND physical examination (procedure)"
            }
          ],
          "text": "History AND physical examination"
        },
        "text": {
          "status": "generated",
          "div": "<div xmlns=\"http://www.w3.org/1999/xhtml\"><table class=\"hl7__ips\"><tr><td>History AND physical examination</td><td><span class=\"nb\">26-May-2023</span></td><td>-</td></tr></table></div>"
        },
        "status": "completed",
        "performedDateTime": "2023-05-26",
        "subject": {
          "reference": "urn:uuid:1cd83a11-c9ab-4df9-908e-9cf57363e1dc",
          "display": "Bettina Sauro"
        }
      }
    },
    {
      "fullUrl": "urn:uuid:27c5abfc-10ea-41fb-83f6-99d3b57e93de",
      "resource": {
        "resourceType": "Procedure",
        "id": "27c5abfc-10ea-41fb-83f6-99d3b57e93de",
        "meta": {
          "profile": [
            "http://hl7.org/fhir/uv/ips/StructureDefinition/Procedure-uv-ips"
          ]
        },
        "code": {
          "coding": [
            {
              "code": "315639002",
              "system": "http://snomed.info/sct",
              "display": "Initial patient assessment (procedure)"
            }
          ],
          "text": "Initial patient assessment"
        },
        "text": {
          "status": "generated",
          "div": "<div xmlns=\"http://www.w3.org/1999/xhtml\"><table class=\"hl7__ips\"><tr><td>Initial patient assessment</td><td><span class=\"nb\">26-May-2023</span></td><td>-</td></tr></table></div>"
        },
        "status": "completed",
        "performedDateTime": "2023-05-26",
        "subject": {
          "reference": "urn:uuid:1cd83a11-c9ab-4df9-908e-9cf57363e1dc",
          "display": "Bettina Sauro"
        }
      }
    },
    {
      "fullUrl": "urn:uuid:5cd52484-3a1f-4497-8d60-7f45e3a8f534",
      "resource": {
        "resourceType": "Procedure",
        "id": "5cd52484-3a1f-4497-8d60-7f45e3a8f534",
        "meta": {
          "profile": [
            "http://hl7.org/fhir/uv/ips/StructureDefinition/Procedure-uv-ips"
          ]
        },
        "code": {
          "coding": [
            {
              "code": "370789001",
              "system": "http://snomed.info/sct",
              "display": "Development of individualized plan of care (procedure)"
            }
          ],
          "text": "Development of individualized plan of care"
        },
        "text": {
          "status": "generated",
          "div": "<div xmlns=\"http://www.w3.org/1999/xhtml\"><table class=\"hl7__ips\"><tr><td>Development of individualized plan of care</td><td><span class=\"nb\">26-May-2023</span></td><td>-</td></tr></table></div>"
        },
        "status": "completed",
        "performedDateTime": "2023-05-26",
        "subject": {
          "reference": "urn:uuid:1cd83a11-c9ab-4df9-908e-9cf57363e1dc",
          "display": "Bettina Sauro"
        }
      }
    },
    {
      "fullUrl": "urn:uuid:b06099a4-6097-468b-b3a7-25e58e7f8603",
      "resource": {
        "resourceType": "Procedure",
        "id": "b06099a4-6097-468b-b3a7-25e58e7f8603",
        "meta": {
          "profile": [
            "http://hl7.org/fhir/uv/ips/StructureDefinition/Procedure-uv-ips"
          ]
        },
        "code": {
          "coding": [
            {
              "code": "288086009",
              "system": "http://snomed.info/sct",
              "display": "Suture open wound"
            }
          ],
          "text": "Suture open wound"
        },
        "reasonCode": [
          {
            "coding": [
              {
                "code": "284551006",
                "system": "http://snomed.info/sct",
                "display": "Laceration of foot"
              }
            ]
          }
        ],
        "text": {
          "status": "generated",
          "div": "<div xmlns=\"http://www.w3.org/1999/xhtml\"><table class=\"hl7__ips\"><tr><td>Suture open wound</td><td><span class=\"nb\">28-Jul-2018</span></td><td>Laceration of foot</td></tr></table></div>"
        },
        "status": "completed",
        "performedDateTime": "2018-07-28",
        "subject": {
          "reference": "urn:uuid:1cd83a11-c9ab-4df9-908e-9cf57363e1dc",
          "display": "Bettina Sauro"
        }
      }
    },
    {
      "fullUrl": "urn:uuid:8a2bd8ed-6b1f-451d-83a6-6847795d48a5",
      "resource": {
        "resourceType": "Procedure",
        "id": "8a2bd8ed-6b1f-451d-83a6-6847795d48a5",
        "meta": {
          "profile": [
            "http://hl7.org/fhir/uv/ips/StructureDefinition/Procedure-uv-ips"
          ]
        },
        "code": {
          "coding": [
            {
              "code": "430193006",
              "system": "http://snomed.info/sct",
              "display": "Medication Reconciliation (procedure)"
            }
          ],
          "text": "Medication reconciliation"
        },
        "text": {
          "status": "generated",
          "div": "<div xmlns=\"http://www.w3.org/1999/xhtml\"><table class=\"hl7__ips\"><tr><td>Medication reconciliation</td><td><span class=\"nb\">07-Jul-2017</span></td><td>-</td></tr></table></div>"
        },
        "status": "completed",
        "performedDateTime": "2017-07-07",
        "subject": {
          "reference": "urn:uuid:1cd83a11-c9ab-4df9-908e-9cf57363e1dc",
          "display": "Bettina Sauro"
        }
      }
    },
    {
      "fullUrl": "urn:uuid:d7ecc858-3731-4e5e-adaa-007cf35badcc",
      "resource": {
        "resourceType": "Procedure",
        "id": "d7ecc858-3731-4e5e-adaa-007cf35badcc",
        "meta": {
          "profile": [
            "http://hl7.org/fhir/uv/ips/StructureDefinition/Procedure-uv-ips"
          ]
        },
        "code": {
          "coding": [
            {
              "code": "866148006",
              "system": "http://snomed.info/sct",
              "display": "Screening for domestic abuse (procedure)"
            }
          ],
          "text": "Screening for domestic abuse"
        },
        "text": {
          "status": "generated",
          "div": "<div xmlns=\"http://www.w3.org/1999/xhtml\"><table class=\"hl7__ips\"><tr><td>Screening for domestic abuse</td><td><span class=\"nb\">07-Jul-2017</span></td><td>-</td></tr></table></div>"
        },
        "status": "completed",
        "performedDateTime": "2017-07-07",
        "subject": {
          "reference": "urn:uuid:1cd83a11-c9ab-4df9-908e-9cf57363e1dc",
          "display": "Bettina Sauro"
        }
      }
    },
    {
      "fullUrl": "urn:uuid:c620038b-f689-4fcb-8a0b-c440d945717f",
      "resource": {
        "resourceType": "AllergyIntolerance",
        "id": "c620038b-f689-4fcb-8a0b-c440d945717f",
        "meta": {
          "profile": [
            "http://hl7.eu/fhir/base/StructureDefinition/allergyIntolerance-eu-core"
          ]
        },
        "code": {
          "text": ""
        },
        "clinicalStatus": {
          "coding": [
            {
              "code": "active",
              "system": "http://terminology.hl7.org/CodeSystem/allergyintolerance-clinical"
            }
          ]
        },
        "text": {
          "status": "generated",
          "div": "<div xmlns=\"http://www.w3.org/1999/xhtml\"><table class=\"hl7__ips\"><tr><th>Allergy/Intolerance</th><th>Onset Date</th><th>Status</th><th>Type</th><th>Reaction</th></tr><tr><td></td><td>?</td><td>active</td><td>?</td><td></td></tr></table></div>"
        },
        "verificationStatus": {
          "coding": [
            {
              "code": "confirmed",
              "system": "http://terminology.hl7.org/CodeSystem/allergyintolerance-verification"
            }
          ]
        },
        "patient": {
          "reference": "urn:uuid:1cd83a11-c9ab-4df9-908e-9cf57363e1dc",
          "display": "Bettina Sauro"
        },
        "_onsetDateTime": {
          "extension": [
            {
              "url": "http://hl7.org/fhir/StructureDefinition/data-absent-reason",
              "valueCode": "unknown"
            }
          ]
        }
      }
    },
    {
      "fullUrl": "urn:uuid:79c34882-6ba5-436b-855b-9f3901fd12a5",
      "resource": {
        "resourceType": "CarePlan",
        "id": "79c34882-6ba5-436b-855b-9f3901fd12a5",
        "category": [
          {
            "coding": [
              {
                "code": "assess-plan",
                "system": "http://terminology.hl7.org/CodeSystem/care-plan-category",
                "display": "Assessment and Plan"
              }
            ]
          }
        ],
        "activity": [
          {
            "detail": {
              "code": {
                "coding": [
                  {
                    "code": "443402002",
                    "system": "http://snomed.info/sct",
                    "display": "Lifestyle education regarding hypertension (procedure)"
                  }
                ]
              },
              "reasonCode": [
                {
                  "coding": [
                    {
                      "code": "59621000",
                      "system": "http://snomed.info/sct",
                      "display": "Essential hypertension (disorder)"
                    }
                  ]
                }
              ],
              "status": "unknown",
              "description": "Lifestyle education regarding hypertension",
              "kind": "Appointment"
            }
          }
        ],
        "period": {
          "start": "2014-08-15"
        },
        "goal": [
          {
            "reference": "urn:uuid:5afb6e5d-de48-42b0-a0b0-ab8133db77b8"
          }
        ],
        "text": {
          "status": "generated",
          "div": "<div xmlns=\"http://www.w3.org/1999/xhtml\"><table class=\"hl7__ips first25\"><tr><th>Active Planned Care / Goals</th><th>Start Date</th><th>Reason</th></tr><tr><td>Lifestyle education regarding hypertension</td><td><span class=\"nb\">15-Aug-2014</span></td><td>Essential hypertension (disorder)</td></tr><tr><td><ul><li>Maintain blood pressure below 130/80 mmHg through lifestyle modifications.</li></ul></td><td></td><td></td></tr></table></div>"
        },
        "status": "active",
        "intent": "plan",
        "subject": {
          "reference": "urn:uuid:1cd83a11-c9ab-4df9-908e-9cf57363e1dc",
          "display": "Bettina Sauro"
        }
      }
    },
    {
      "fullUrl": "urn:uuid:b3670df0-b442-43d1-8514-59b513a9602a",
      "resource": {
        "resourceType": "CarePlan",
        "id": "b3670df0-b442-43d1-8514-59b513a9602a",
        "category": [
          {
            "coding": [
              {
                "code": "assess-plan",
                "system": "http://terminology.hl7.org/CodeSystem/care-plan-category",
                "display": "Assessment and Plan"
              }
            ]
          }
        ],
        "activity": [
          {
            "detail": {
              "code": {
                "coding": [
                  {
                    "code": "134435003",
                    "system": "http://snomed.info/sct",
                    "display": "Routine antenatal care (regime/therapy)"
                  }
                ]
              },
              "status": "unknown",
              "description": "Routine antenatal care",
              "kind": "Appointment"
            }
          }
        ],
        "period": {
          "start": "2004-01-02"
        },
        "text": {
          "status": "generated",
          "div": "<div xmlns=\"http://www.w3.org/1999/xhtml\"><table class=\"hl7__ips first25\"><tr><th>Active Planned Care / Goals</th><th>Start Date</th><th>Reason</th></tr><tr><td>Routine antenatal care</td><td><span class=\"nb\">02-Jan-2004</span></td><td>-</td></tr></table></div>"
        },
        "status": "active",
        "intent": "plan",
        "subject": {
          "reference": "urn:uuid:1cd83a11-c9ab-4df9-908e-9cf57363e1dc",
          "display": "Bettina Sauro"
        }
      }
    },
    {
      "fullUrl": "urn:uuid:67bd1c42-06da-4c1b-a227-51ce421b030c",
      "resource": {
        "resourceType": "CarePlan",
        "id": "67bd1c42-06da-4c1b-a227-51ce421b030c",
        "category": [
          {
            "coding": [
              {
                "code": "assess-plan",
                "system": "http://terminology.hl7.org/CodeSystem/care-plan-category",
                "display": "Assessment and Plan"
              }
            ]
          }
        ],
        "activity": [
          {
            "detail": {
              "code": {
                "coding": [
                  {
                    "code": "718361005",
                    "system": "http://snomed.info/sct",
                    "display": "Weight management program (regime/therapy)"
                  }
                ]
              },
              "status": "unknown",
              "description": "Weight management program",
              "kind": "Appointment"
            }
          }
        ],
        "period": {
          "start": "1977-07-29"
        },
        "text": {
          "status": "generated",
          "div": "<div xmlns=\"http://www.w3.org/1999/xhtml\"><table class=\"hl7__ips first25\"><tr><th>Active Planned Care / Goals</th><th>Start Date</th><th>Reason</th></tr><tr><td>Weight management program</td><td><span class=\"nb\">29-Jul-1977</span></td><td>-</td></tr></table></div>"
        },
        "status": "active",
        "intent": "plan",
        "subject": {
          "reference": "urn:uuid:1cd83a11-c9ab-4df9-908e-9cf57363e1dc",
          "display": "Bettina Sauro"
        }
      }
    },
    {
      "fullUrl": "urn:uuid:0c02490d-f4ad-4aa5-a299-0eedc4ebc75b",
      "resource": {
        "resourceType": "Observation",
        "id": "0c02490d-f4ad-4aa5-a299-0eedc4ebc75b",
        "meta": {
          "profile": [
            "http://hl7.org/fhir/StructureDefinition/vitalsigns"
          ]
        },
        "category": [
          {
            "coding": [
              {
                "system": "http://terminology.hl7.org/CodeSystem/observation-category",
                "code": "vital-signs",
                "display": "Vital Signs"
              }
            ]
          }
        ],
        "valueQuantity": {
          "value": 169.5,
          "code": "cm",
          "unit": "cm"
        },
        "text": {
          "status": "generated",
          "div": "<div xmlns=\"http://www.w3.org/1999/xhtml\"><table class=\"hl7__ips\"><tr><th>Vital Sign</th><th>Date</th><th>Measurement</th></tr><tr><td>Body Height</td><td>10-Jan-2025</td><td>169.5 cm</td></tr></table></div>"
        },
        "status": "final",
        "code": {
          "coding": [
            {
              "code": "8302-2",
              "system": "http://loinc.org",
              "display": "Body Height"
            }
          ]
        },
        "subject": {
          "reference": "urn:uuid:1cd83a11-c9ab-4df9-908e-9cf57363e1dc",
          "display": "Bettina Sauro"
        },
        "effectiveDateTime": "2025-01-10"
      }
    },
    {
      "fullUrl": "urn:uuid:f1b58c04-8ad5-419a-8746-b754e5c4b211",
      "resource": {
        "resourceType": "Observation",
        "id": "f1b58c04-8ad5-419a-8746-b754e5c4b211",
        "meta": {
          "profile": [
            "http://hl7.org/fhir/StructureDefinition/vitalsigns"
          ]
        },
        "category": [
          {
            "coding": [
              {
                "system": "http://terminology.hl7.org/CodeSystem/observation-category",
                "code": "vital-signs",
                "display": "Vital Signs"
              }
            ]
          }
        ],
        "valueQuantity": {
          "value": 3,
          "code": "{score}",
          "unit": "{score}"
        },
        "text": {
          "status": "generated",
          "div": "<div xmlns=\"http://www.w3.org/1999/xhtml\"><table class=\"hl7__ips\"><tr><th>Vital Sign</th><th>Date</th><th>Measurement</th></tr><tr><td>Pain severity - 0-10 verbal numeric rating [Score] - Reported</td><td>10-Jan-2025</td><td>3 {score}</td></tr></table></div>"
        },
        "status": "final",
        "code": {
          "coding": [
            {
              "code": "72514-3",
              "system": "http://loinc.org",
              "display": "Pain severity - 0-10 verbal numeric rating [Score] - Reported"
            }
          ]
        },
        "subject": {
          "reference": "urn:uuid:1cd83a11-c9ab-4df9-908e-9cf57363e1dc",
          "display": "Bettina Sauro"
        },
        "effectiveDateTime": "2025-01-10"
      }
    },
    {
      "fullUrl": "urn:uuid:37bb92d1-b590-4d1e-949d-467293ddc1c8",
      "resource": {
        "resourceType": "Observation",
        "id": "37bb92d1-b590-4d1e-949d-467293ddc1c8",
        "meta": {
          "profile": [
            "http://hl7.org/fhir/StructureDefinition/vitalsigns"
          ]
        },
        "category": [
          {
            "coding": [
              {
                "system": "http://terminology.hl7.org/CodeSystem/observation-category",
                "code": "vital-signs",
                "display": "Vital Signs"
              }
            ]
          }
        ],
        "valueQuantity": {
          "value": 84.8,
          "code": "kg",
          "unit": "kg"
        },
        "text": {
          "status": "generated",
          "div": "<div xmlns=\"http://www.w3.org/1999/xhtml\"><table class=\"hl7__ips\"><tr><th>Vital Sign</th><th>Date</th><th>Measurement</th></tr><tr><td>Body Weight</td><td>10-Jan-2025</td><td>84.8 kg</td></tr></table></div>"
        },
        "status": "final",
        "code": {
          "coding": [
            {
              "code": "29463-7",
              "system": "http://loinc.org",
              "display": "Body Weight"
            }
          ]
        },
        "subject": {
          "reference": "urn:uuid:1cd83a11-c9ab-4df9-908e-9cf57363e1dc",
          "display": "Bettina Sauro"
        },
        "effectiveDateTime": "2025-01-10"
      }
    },
    {
      "fullUrl": "urn:uuid:760b5074-3dd4-45f1-8b33-180058d4204c",
      "resource": {
        "resourceType": "Observation",
        "id": "760b5074-3dd4-45f1-8b33-180058d4204c",
        "meta": {
          "profile": [
            "http://hl7.org/fhir/StructureDefinition/vitalsigns"
          ]
        },
        "category": [
          {
            "coding": [
              {
                "system": "http://terminology.hl7.org/CodeSystem/observation-category",
                "code": "vital-signs",
                "display": "Vital Signs"
              }
            ]
          }
        ],
        "valueQuantity": {
          "value": 29.5,
          "code": "kg/m2",
          "unit": "kg/m2"
        },
        "text": {
          "status": "generated",
          "div": "<div xmlns=\"http://www.w3.org/1999/xhtml\"><table class=\"hl7__ips\"><tr><th>Vital Sign</th><th>Date</th><th>Measurement</th></tr><tr><td>Body mass index (BMI) [Ratio]</td><td>10-Jan-2025</td><td>29.5 kg/m2</td></tr></table></div>"
        },
        "status": "final",
        "code": {
          "coding": [
            {
              "code": "39156-5",
              "system": "http://loinc.org",
              "display": "Body mass index (BMI) [Ratio]"
            }
          ]
        },
        "subject": {
          "reference": "urn:uuid:1cd83a11-c9ab-4df9-908e-9cf57363e1dc",
          "display": "Bettina Sauro"
        },
        "effectiveDateTime": "2025-01-10"
      }
    },
    {
      "fullUrl": "urn:uuid:818761de-55dc-4dbe-834e-0cc0898f8f7e",
      "resource": {
        "resourceType": "Observation",
        "id": "818761de-55dc-4dbe-834e-0cc0898f8f7e",
        "meta": {
          "profile": [
            "http://hl7.org/fhir/StructureDefinition/vitalsigns"
          ]
        },
        "category": [
          {
            "coding": [
              {
                "system": "http://terminology.hl7.org/CodeSystem/observation-category",
                "code": "vital-signs",
                "display": "Vital Signs"
              }
            ]
          }
        ],
        "valueQuantity": {
          "value": 72,
          "code": "mm[Hg]",
          "unit": "mm[Hg]"
        },
        "text": {
          "status": "generated",
          "div": "<div xmlns=\"http://www.w3.org/1999/xhtml\"><table class=\"hl7__ips\"><tr><th>Vital Sign</th><th>Date</th><th>Measurement</th></tr><tr><td>Diastolic Blood Pressure</td><td>10-Jan-2025</td><td>72 mm[Hg]</td></tr></table></div>"
        },
        "status": "final",
        "code": {
          "coding": [
            {
              "code": "8462-4",
              "system": "http://loinc.org",
              "display": "Diastolic Blood Pressure"
            }
          ]
        },
        "subject": {
          "reference": "urn:uuid:1cd83a11-c9ab-4df9-908e-9cf57363e1dc",
          "display": "Bettina Sauro"
        },
        "effectiveDateTime": "2025-01-10"
      }
    },
    {
      "fullUrl": "urn:uuid:1086ed49-daec-4008-8198-c58adad2081d",
      "resource": {
        "resourceType": "Observation",
        "id": "1086ed49-daec-4008-8198-c58adad2081d",
        "meta": {
          "profile": [
            "http://hl7.org/fhir/StructureDefinition/vitalsigns"
          ]
        },
        "category": [
          {
            "coding": [
              {
                "system": "http://terminology.hl7.org/CodeSystem/observation-category",
                "code": "vital-signs",
                "display": "Vital Signs"
              }
            ]
          }
        ],
        "valueQuantity": {
          "value": 115,
          "code": "mm[Hg]",
          "unit": "mm[Hg]"
        },
        "text": {
          "status": "generated",
          "div": "<div xmlns=\"http://www.w3.org/1999/xhtml\"><table class=\"hl7__ips\"><tr><th>Vital Sign</th><th>Date</th><th>Measurement</th></tr><tr><td>Systolic Blood Pressure</td><td>10-Jan-2025</td><td>115 mm[Hg]</td></tr></table></div>"
        },
        "status": "final",
        "code": {
          "coding": [
            {
              "code": "8480-6",
              "system": "http://loinc.org",
              "display": "Systolic Blood Pressure"
            }
          ]
        },
        "subject": {
          "reference": "urn:uuid:1cd83a11-c9ab-4df9-908e-9cf57363e1dc",
          "display": "Bettina Sauro"
        },
        "effectiveDateTime": "2025-01-10"
      }
    },
    {
      "fullUrl": "urn:uuid:1fef00bd-40cf-4e73-9861-2b2d856f7e52",
      "resource": {
        "resourceType": "Observation",
        "id": "1fef00bd-40cf-4e73-9861-2b2d856f7e52",
        "meta": {
          "profile": [
            "http://hl7.org/fhir/StructureDefinition/vitalsigns"
          ]
        },
        "category": [
          {
            "coding": [
              {
                "system": "http://terminology.hl7.org/CodeSystem/observation-category",
                "code": "vital-signs",
                "display": "Vital Signs"
              }
            ]
          }
        ],
        "valueQuantity": {
          "value": 99,
          "code": "/min",
          "unit": "/min"
        },
        "text": {
          "status": "generated",
          "div": "<div xmlns=\"http://www.w3.org/1999/xhtml\"><table class=\"hl7__ips\"><tr><th>Vital Sign</th><th>Date</th><th>Measurement</th></tr><tr><td>Heart rate</td><td>10-Jan-2025</td><td>99 /min</td></tr></table></div>"
        },
        "status": "final",
        "code": {
          "coding": [
            {
              "code": "8867-4",
              "system": "http://loinc.org",
              "display": "Heart rate"
            }
          ]
        },
        "subject": {
          "reference": "urn:uuid:1cd83a11-c9ab-4df9-908e-9cf57363e1dc",
          "display": "Bettina Sauro"
        },
        "effectiveDateTime": "2025-01-10"
      }
    },
    {
      "fullUrl": "urn:uuid:dab00553-021b-4ab8-8486-b7fbc0f7c898",
      "resource": {
        "resourceType": "Observation",
        "id": "dab00553-021b-4ab8-8486-b7fbc0f7c898",
        "meta": {
          "profile": [
            "http://hl7.org/fhir/StructureDefinition/vitalsigns"
          ]
        },
        "category": [
          {
            "coding": [
              {
                "system": "http://terminology.hl7.org/CodeSystem/observation-category",
                "code": "vital-signs",
                "display": "Vital Signs"
              }
            ]
          }
        ],
        "valueQuantity": {
          "value": 13,
          "code": "/min",
          "unit": "/min"
        },
        "text": {
          "status": "generated",
          "div": "<div xmlns=\"http://www.w3.org/1999/xhtml\"><table class=\"hl7__ips\"><tr><th>Vital Sign</th><th>Date</th><th>Measurement</th></tr><tr><td>Respiratory rate</td><td>10-Jan-2025</td><td>13 /min</td></tr></table></div>"
        },
        "status": "final",
        "code": {
          "coding": [
            {
              "code": "9279-1",
              "system": "http://loinc.org",
              "display": "Respiratory rate"
            }
          ]
        },
        "subject": {
          "reference": "urn:uuid:1cd83a11-c9ab-4df9-908e-9cf57363e1dc",
          "display": "Bettina Sauro"
        },
        "effectiveDateTime": "2025-01-10"
      }
    },
    {
      "fullUrl": "urn:uuid:e1e74c7e-8035-4879-9bde-9dd0030e1390",
      "resource": {
        "resourceType": "Observation",
        "id": "e1e74c7e-8035-4879-9bde-9dd0030e1390",
        "meta": {
          "profile": [
            "http://hl7.org/fhir/StructureDefinition/vitalsigns"
          ]
        },
        "category": [
          {
            "coding": [
              {
                "system": "http://terminology.hl7.org/CodeSystem/observation-category",
                "code": "vital-signs",
                "display": "Vital Signs"
              }
            ]
          }
        ],
        "valueQuantity": {
          "value": 169.5,
          "code": "cm",
          "unit": "cm"
        },
        "text": {
          "status": "generated",
          "div": "<div xmlns=\"http://www.w3.org/1999/xhtml\"><table class=\"hl7__ips\"><tr><th>Vital Sign</th><th>Date</th><th>Measurement</th></tr><tr><td>Body Height</td><td>13-Dec-2024</td><td>169.5 cm</td></tr></table></div>"
        },
        "status": "final",
        "code": {
          "coding": [
            {
              "code": "8302-2",
              "system": "http://loinc.org",
              "display": "Body Height"
            }
          ]
        },
        "subject": {
          "reference": "urn:uuid:1cd83a11-c9ab-4df9-908e-9cf57363e1dc",
          "display": "Bettina Sauro"
        },
        "effectiveDateTime": "2024-12-13"
      }
    },
    {
      "fullUrl": "urn:uuid:86c620af-d447-45d7-98a3-d2a6ded9ffce",
      "resource": {
        "resourceType": "Observation",
        "id": "86c620af-d447-45d7-98a3-d2a6ded9ffce",
        "meta": {
          "profile": [
            "http://hl7.org/fhir/StructureDefinition/vitalsigns"
          ]
        },
        "category": [
          {
            "coding": [
              {
                "system": "http://terminology.hl7.org/CodeSystem/observation-category",
                "code": "vital-signs",
                "display": "Vital Signs"
              }
            ]
          }
        ],
        "valueQuantity": {
          "value": 1,
          "code": "{score}",
          "unit": "{score}"
        },
        "text": {
          "status": "generated",
          "div": "<div xmlns=\"http://www.w3.org/1999/xhtml\"><table class=\"hl7__ips\"><tr><th>Vital Sign</th><th>Date</th><th>Measurement</th></tr><tr><td>Pain severity - 0-10 verbal numeric rating [Score] - Reported</td><td>13-Dec-2024</td><td>1 {score}</td></tr></table></div>"
        },
        "status": "final",
        "code": {
          "coding": [
            {
              "code": "72514-3",
              "system": "http://loinc.org",
              "display": "Pain severity - 0-10 verbal numeric rating [Score] - Reported"
            }
          ]
        },
        "subject": {
          "reference": "urn:uuid:1cd83a11-c9ab-4df9-908e-9cf57363e1dc",
          "display": "Bettina Sauro"
        },
        "effectiveDateTime": "2024-12-13"
      }
    },
    {
      "fullUrl": "urn:uuid:628a3606-a4fa-425b-86e6-92d40fa6170f",
      "resource": {
        "resourceType": "Observation",
        "id": "628a3606-a4fa-425b-86e6-92d40fa6170f",
        "meta": {
          "profile": [
            "http://hl7.org/fhir/StructureDefinition/vitalsigns"
          ]
        },
        "category": [
          {
            "coding": [
              {
                "system": "http://terminology.hl7.org/CodeSystem/observation-category",
                "code": "vital-signs",
                "display": "Vital Signs"
              }
            ]
          }
        ],
        "valueQuantity": {
          "value": 84.8,
          "code": "kg",
          "unit": "kg"
        },
        "text": {
          "status": "generated",
          "div": "<div xmlns=\"http://www.w3.org/1999/xhtml\"><table class=\"hl7__ips\"><tr><th>Vital Sign</th><th>Date</th><th>Measurement</th></tr><tr><td>Body Weight</td><td>13-Dec-2024</td><td>84.8 kg</td></tr></table></div>"
        },
        "status": "final",
        "code": {
          "coding": [
            {
              "code": "29463-7",
              "system": "http://loinc.org",
              "display": "Body Weight"
            }
          ]
        },
        "subject": {
          "reference": "urn:uuid:1cd83a11-c9ab-4df9-908e-9cf57363e1dc",
          "display": "Bettina Sauro"
        },
        "effectiveDateTime": "2024-12-13"
      }
    },
    {
      "fullUrl": "urn:uuid:aa74220b-83b7-424f-abb9-ef66c7669436",
      "resource": {
        "resourceType": "Observation",
        "id": "aa74220b-83b7-424f-abb9-ef66c7669436",
        "meta": {
          "profile": [
            "http://hl7.org/fhir/StructureDefinition/vitalsigns"
          ]
        },
        "category": [
          {
            "coding": [
              {
                "system": "http://terminology.hl7.org/CodeSystem/observation-category",
                "code": "vital-signs",
                "display": "Vital Signs"
              }
            ]
          }
        ],
        "valueQuantity": {
          "value": 29.5,
          "code": "kg/m2",
          "unit": "kg/m2"
        },
        "text": {
          "status": "generated",
          "div": "<div xmlns=\"http://www.w3.org/1999/xhtml\"><table class=\"hl7__ips\"><tr><th>Vital Sign</th><th>Date</th><th>Measurement</th></tr><tr><td>Body mass index (BMI) [Ratio]</td><td>13-Dec-2024</td><td>29.5 kg/m2</td></tr></table></div>"
        },
        "status": "final",
        "code": {
          "coding": [
            {
              "code": "39156-5",
              "system": "http://loinc.org",
              "display": "Body mass index (BMI) [Ratio]"
            }
          ]
        },
        "subject": {
          "reference": "urn:uuid:1cd83a11-c9ab-4df9-908e-9cf57363e1dc",
          "display": "Bettina Sauro"
        },
        "effectiveDateTime": "2024-12-13"
      }
    },
    {
      "fullUrl": "urn:uuid:5317b6ea-b79a-4ae8-82da-c1c8f2563ea8",
      "resource": {
        "resourceType": "Observation",
        "id": "5317b6ea-b79a-4ae8-82da-c1c8f2563ea8",
        "meta": {
          "profile": [
            "http://hl7.org/fhir/StructureDefinition/vitalsigns"
          ]
        },
        "category": [
          {
            "coding": [
              {
                "system": "http://terminology.hl7.org/CodeSystem/observation-category",
                "code": "vital-signs",
                "display": "Vital Signs"
              }
            ]
          }
        ],
        "valueQuantity": {
          "value": 70,
          "code": "mm[Hg]",
          "unit": "mm[Hg]"
        },
        "text": {
          "status": "generated",
          "div": "<div xmlns=\"http://www.w3.org/1999/xhtml\"><table class=\"hl7__ips\"><tr><th>Vital Sign</th><th>Date</th><th>Measurement</th></tr><tr><td>Diastolic Blood Pressure</td><td>13-Dec-2024</td><td>70 mm[Hg]</td></tr></table></div>"
        },
        "status": "final",
        "code": {
          "coding": [
            {
              "code": "8462-4",
              "system": "http://loinc.org",
              "display": "Diastolic Blood Pressure"
            }
          ]
        },
        "subject": {
          "reference": "urn:uuid:1cd83a11-c9ab-4df9-908e-9cf57363e1dc",
          "display": "Bettina Sauro"
        },
        "effectiveDateTime": "2024-12-13"
      }
    },
    {
      "fullUrl": "urn:uuid:e22f77a8-aeaf-43e0-a2f5-32e9cacba1af",
      "resource": {
        "resourceType": "Observation",
        "id": "e22f77a8-aeaf-43e0-a2f5-32e9cacba1af",
        "meta": {
          "profile": [
            "http://hl7.org/fhir/StructureDefinition/vitalsigns"
          ]
        },
        "category": [
          {
            "coding": [
              {
                "system": "http://terminology.hl7.org/CodeSystem/observation-category",
                "code": "vital-signs",
                "display": "Vital Signs"
              }
            ]
          }
        ],
        "valueQuantity": {
          "value": 114,
          "code": "mm[Hg]",
          "unit": "mm[Hg]"
        },
        "text": {
          "status": "generated",
          "div": "<div xmlns=\"http://www.w3.org/1999/xhtml\"><table class=\"hl7__ips\"><tr><th>Vital Sign</th><th>Date</th><th>Measurement</th></tr><tr><td>Systolic Blood Pressure</td><td>13-Dec-2024</td><td>114 mm[Hg]</td></tr></table></div>"
        },
        "status": "final",
        "code": {
          "coding": [
            {
              "code": "8480-6",
              "system": "http://loinc.org",
              "display": "Systolic Blood Pressure"
            }
          ]
        },
        "subject": {
          "reference": "urn:uuid:1cd83a11-c9ab-4df9-908e-9cf57363e1dc",
          "display": "Bettina Sauro"
        },
        "effectiveDateTime": "2024-12-13"
      }
    },
    {
      "fullUrl": "urn:uuid:3048697b-b579-4c48-acc7-3a4255273abf",
      "resource": {
        "resourceType": "Observation",
        "id": "3048697b-b579-4c48-acc7-3a4255273abf",
        "meta": {
          "profile": [
            "http://hl7.org/fhir/StructureDefinition/vitalsigns"
          ]
        },
        "category": [
          {
            "coding": [
              {
                "system": "http://terminology.hl7.org/CodeSystem/observation-category",
                "code": "vital-signs",
                "display": "Vital Signs"
              }
            ]
          }
        ],
        "valueQuantity": {
          "value": 70,
          "code": "/min",
          "unit": "/min"
        },
        "text": {
          "status": "generated",
          "div": "<div xmlns=\"http://www.w3.org/1999/xhtml\"><table class=\"hl7__ips\"><tr><th>Vital Sign</th><th>Date</th><th>Measurement</th></tr><tr><td>Heart rate</td><td>13-Dec-2024</td><td>70 /min</td></tr></table></div>"
        },
        "status": "final",
        "code": {
          "coding": [
            {
              "code": "8867-4",
              "system": "http://loinc.org",
              "display": "Heart rate"
            }
          ]
        },
        "subject": {
          "reference": "urn:uuid:1cd83a11-c9ab-4df9-908e-9cf57363e1dc",
          "display": "Bettina Sauro"
        },
        "effectiveDateTime": "2024-12-13"
      }
    },
    {
      "fullUrl": "urn:uuid:e6b6d4ae-1457-4b58-84d2-a05c3378fb29",
      "resource": {
        "resourceType": "Observation",
        "id": "e6b6d4ae-1457-4b58-84d2-a05c3378fb29",
        "meta": {
          "profile": [
            "http://hl7.org/fhir/StructureDefinition/vitalsigns"
          ]
        },
        "category": [
          {
            "coding": [
              {
                "system": "http://terminology.hl7.org/CodeSystem/observation-category",
                "code": "vital-signs",
                "display": "Vital Signs"
              }
            ]
          }
        ],
        "valueQuantity": {
          "value": 14,
          "code": "/min",
          "unit": "/min"
        },
        "text": {
          "status": "generated",
          "div": "<div xmlns=\"http://www.w3.org/1999/xhtml\"><table class=\"hl7__ips\"><tr><th>Vital Sign</th><th>Date</th><th>Measurement</th></tr><tr><td>Respiratory rate</td><td>13-Dec-2024</td><td>14 /min</td></tr></table></div>"
        },
        "status": "final",
        "code": {
          "coding": [
            {
              "code": "9279-1",
              "system": "http://loinc.org",
              "display": "Respiratory rate"
            }
          ]
        },
        "subject": {
          "reference": "urn:uuid:1cd83a11-c9ab-4df9-908e-9cf57363e1dc",
          "display": "Bettina Sauro"
        },
        "effectiveDateTime": "2024-12-13"
      }
    },
    {
      "fullUrl": "urn:uuid:1eaa2edb-d56d-41a1-8fbc-49e836af3415",
      "resource": {
        "resourceType": "Observation",
        "id": "1eaa2edb-d56d-41a1-8fbc-49e836af3415",
        "meta": {
          "profile": [
            "http://hl7.eu/fhir/laboratory/StructureDefinition/Observation-resultslab-eu-lab"
          ]
        },
        "performer": [
          {
            "display": "The Central European Lab"
          }
        ],
        "category": [
          {
            "coding": [
              {
                "system": "http://terminology.hl7.org/CodeSystem/observation-category",
                "code": "laboratory"
              }
            ]
          }
        ],
        "code": {
          "coding": [
            {
              "code": "2345-7",
              "system": "http://loinc.org",
              "display": "Glucose [Mass/volume] in Serum or Plasma"
            }
          ],
          "text": "Glucose [Mass/volume] in Serum or Plasma"
        },
        "valueQuantity": {
          "system": "http://unitsofmeasure.org",
          "value": 64.2,
          "unit": "mg/dL",
          "code": "mg/dL"
        },
        "referenceRange": [
          {
            "low": {
              "value": 70,
              "code": "mg/dL",
              "system": "http://unitsofmeasure.org"
            }
          },
          {
            "high": {
              "value": 139,
              "code": "mg/dL",
              "system": "http://unitsofmeasure.org"
            }
          }
        ],
        "interpretation": [
          {
            "coding": [
              {
                "code": "L",
                "system": "http://terminology.hl7.org/CodeSystem/v3-ObservationInterpretation",
                "display": "Low"
              }
            ]
          }
        ],
        "text": {
          "status": "generated",
          "div": "<div xmlns=\"http://www.w3.org/1999/xhtml\"><table class=\"hl7__eu__lab__report\"><tr><th>Test</th><th>10-Jan-2025</th><th>Reference&#xA0;Range</th><th>Unit</th></tr><tr><td>Glucose [Mass/volume] in Serum or Plasma</td><td>64.2</td><td>70 - 139</td><td>L</td><td>mg/dL</td></tr></table></div>"
        },
        "status": "final",
        "subject": {
          "reference": "urn:uuid:1cd83a11-c9ab-4df9-908e-9cf57363e1dc",
          "display": "Bettina Sauro"
        },
        "effectiveDateTime": "2025-01-10T14:58:23Z"
      }
    },
    {
      "fullUrl": "urn:uuid:95d39f23-6605-4711-9f2d-60d86546952e",
      "resource": {
        "resourceType": "Observation",
        "id": "95d39f23-6605-4711-9f2d-60d86546952e",
        "meta": {
          "profile": [
            "http://hl7.eu/fhir/laboratory/StructureDefinition/Observation-resultslab-eu-lab"
          ]
        },
        "performer": [
          {
            "display": "The Central European Lab"
          }
        ],
        "category": [
          {
            "coding": [
              {
                "system": "http://terminology.hl7.org/CodeSystem/observation-category",
                "code": "laboratory"
              }
            ]
          }
        ],
        "code": {
          "coding": [
            {
              "code": "3094-0",
              "system": "http://loinc.org",
              "display": "Urea nitrogen [Mass/volume] in Serum or Plasma"
            }
          ],
          "text": "Urea nitrogen [Mass/volume] in Serum or Plasma"
        },
        "valueQuantity": {
          "system": "http://unitsofmeasure.org",
          "value": 9.9,
          "unit": "mg/dL",
          "code": "mg/dL"
        },
        "referenceRange": [
          {
            "low": {
              "value": 7,
              "code": "mg/dL",
              "system": "http://unitsofmeasure.org"
            }
          },
          {
            "high": {
              "value": 20,
              "code": "mg/dL",
              "system": "http://unitsofmeasure.org"
            }
          }
        ],
        "text": {
          "status": "generated",
          "div": "<div xmlns=\"http://www.w3.org/1999/xhtml\"><table class=\"hl7__eu__lab__report\"><tr><th>Test</th><th>10-Jan-2025</th><th>Reference&#xA0;Range</th><th>Unit</th></tr><tr><td>Urea nitrogen [Mass/volume] in Serum or Plasma</td><td>9.9</td><td>7 - 20</td><td></td><td>mg/dL</td></tr></table></div>"
        },
        "status": "final",
        "subject": {
          "reference": "urn:uuid:1cd83a11-c9ab-4df9-908e-9cf57363e1dc",
          "display": "Bettina Sauro"
        },
        "effectiveDateTime": "2025-01-10T14:58:23Z"
      }
    },
    {
      "fullUrl": "urn:uuid:5b08bc43-f188-46a6-b7c7-b3b21f5e6902",
      "resource": {
        "resourceType": "Observation",
        "id": "5b08bc43-f188-46a6-b7c7-b3b21f5e6902",
        "meta": {
          "profile": [
            "http://hl7.eu/fhir/laboratory/StructureDefinition/Observation-resultslab-eu-lab"
          ]
        },
        "performer": [
          {
            "display": "The Central European Lab"
          }
        ],
        "category": [
          {
            "coding": [
              {
                "system": "http://terminology.hl7.org/CodeSystem/observation-category",
                "code": "laboratory"
              }
            ]
          }
        ],
        "code": {
          "coding": [
            {
              "code": "2160-0",
              "system": "http://loinc.org",
              "display": "Creatinine [Mass/volume] in Serum or Plasma"
            }
          ],
          "text": "Creatinine [Mass/volume] in Serum or Plasma"
        },
        "valueQuantity": {
          "system": "http://unitsofmeasure.org",
          "value": 1.9,
          "unit": "mg/dL",
          "code": "mg/dL"
        },
        "referenceRange": [
          {
            "low": {
              "value": 0.6,
              "code": "mg/dL",
              "system": "http://unitsofmeasure.org"
            }
          },
          {
            "high": {
              "value": 1.1,
              "code": "mg/dL",
              "system": "http://unitsofmeasure.org"
            }
          }
        ],
        "interpretation": [
          {
            "coding": [
              {
                "code": "H",
                "system": "http://terminology.hl7.org/CodeSystem/v3-ObservationInterpretation",
                "display": "High"
              }
            ]
          }
        ],
        "text": {
          "status": "generated",
          "div": "<div xmlns=\"http://www.w3.org/1999/xhtml\"><table class=\"hl7__eu__lab__report\"><tr><th>Test</th><th>10-Jan-2025</th><th>Reference&#xA0;Range</th><th>Unit</th></tr><tr><td>Creatinine [Mass/volume] in Serum or Plasma</td><td>1.9</td><td>0.6 - 1.1</td><td>H</td><td>mg/dL</td></tr></table></div>"
        },
        "status": "final",
        "subject": {
          "reference": "urn:uuid:1cd83a11-c9ab-4df9-908e-9cf57363e1dc",
          "display": "Bettina Sauro"
        },
        "effectiveDateTime": "2025-01-10T14:58:23Z"
      }
    },
    {
      "fullUrl": "urn:uuid:4a1c8589-58b8-41b3-a2e2-7cecf852c827",
      "resource": {
        "resourceType": "Observation",
        "id": "4a1c8589-58b8-41b3-a2e2-7cecf852c827",
        "meta": {
          "profile": [
            "http://hl7.eu/fhir/laboratory/StructureDefinition/Observation-resultslab-eu-lab"
          ]
        },
        "performer": [
          {
            "display": "The Central European Lab"
          }
        ],
        "category": [
          {
            "coding": [
              {
                "system": "http://terminology.hl7.org/CodeSystem/observation-category",
                "code": "laboratory"
              }
            ]
          }
        ],
        "code": {
          "coding": [
            {
              "code": "17861-6",
              "system": "http://loinc.org",
              "display": "Calcium [Mass/volume] in Serum or Plasma"
            }
          ],
          "text": "Calcium [Mass/volume] in Serum or Plasma"
        },
        "valueQuantity": {
          "system": "http://unitsofmeasure.org",
          "value": 8.9,
          "unit": "mg/dL",
          "code": "mg/dL"
        },
        "referenceRange": [
          {
            "low": {
              "value": 8.4,
              "code": "mg/dL",
              "system": "http://unitsofmeasure.org"
            }
          },
          {
            "high": {
              "value": 10.3,
              "code": "mg/dL",
              "system": "http://unitsofmeasure.org"
            }
          }
        ],
        "text": {
          "status": "generated",
          "div": "<div xmlns=\"http://www.w3.org/1999/xhtml\"><table class=\"hl7__eu__lab__report\"><tr><th>Test</th><th>10-Jan-2025</th><th>Reference&#xA0;Range</th><th>Unit</th></tr><tr><td>Calcium [Mass/volume] in Serum or Plasma</td><td>8.9</td><td>8.4 - 10.3</td><td></td><td>mg/dL</td></tr></table></div>"
        },
        "status": "final",
        "subject": {
          "reference": "urn:uuid:1cd83a11-c9ab-4df9-908e-9cf57363e1dc",
          "display": "Bettina Sauro"
        },
        "effectiveDateTime": "2025-01-10T14:58:23Z"
      }
    },
    {
      "fullUrl": "urn:uuid:8a357c8b-1628-4d9c-a964-e9e9e76e255d",
      "resource": {
        "resourceType": "Observation",
        "id": "8a357c8b-1628-4d9c-a964-e9e9e76e255d",
        "meta": {
          "profile": [
            "http://hl7.eu/fhir/laboratory/StructureDefinition/Observation-resultslab-eu-lab"
          ]
        },
        "performer": [
          {
            "display": "The Central European Lab"
          }
        ],
        "category": [
          {
            "coding": [
              {
                "system": "http://terminology.hl7.org/CodeSystem/observation-category",
                "code": "laboratory"
              }
            ]
          }
        ],
        "code": {
          "coding": [
            {
              "code": "2951-2",
              "system": "http://loinc.org",
              "display": "Sodium [Moles/volume] in Serum or Plasma"
            }
          ],
          "text": "Sodium [Moles/volume] in Serum or Plasma"
        },
        "valueQuantity": {
          "system": "http://unitsofmeasure.org",
          "value": 141,
          "unit": "mmol/L",
          "code": "mmol/L"
        },
        "referenceRange": [
          {
            "low": {
              "value": 135,
              "code": "mmol/L",
              "system": "http://unitsofmeasure.org"
            }
          },
          {
            "high": {
              "value": 145,
              "code": "mmol/L",
              "system": "http://unitsofmeasure.org"
            }
          }
        ],
        "text": {
          "status": "generated",
          "div": "<div xmlns=\"http://www.w3.org/1999/xhtml\"><table class=\"hl7__eu__lab__report\"><tr><th>Test</th><th>10-Jan-2025</th><th>Reference&#xA0;Range</th><th>Unit</th></tr><tr><td>Sodium [Moles/volume] in Serum or Plasma</td><td>141.0</td><td>135 - 145</td><td></td><td>mmol/L</td></tr></table></div>"
        },
        "status": "final",
        "subject": {
          "reference": "urn:uuid:1cd83a11-c9ab-4df9-908e-9cf57363e1dc",
          "display": "Bettina Sauro"
        },
        "effectiveDateTime": "2025-01-10T14:58:23Z"
      }
    },
    {
      "fullUrl": "urn:uuid:407b368c-8b37-48e6-bd6c-9ff91f4be80e",
      "resource": {
        "resourceType": "Observation",
        "id": "407b368c-8b37-48e6-bd6c-9ff91f4be80e",
        "meta": {
          "profile": [
            "http://hl7.eu/fhir/laboratory/StructureDefinition/Observation-resultslab-eu-lab"
          ]
        },
        "performer": [
          {
            "display": "The Central European Lab"
          }
        ],
        "category": [
          {
            "coding": [
              {
                "system": "http://terminology.hl7.org/CodeSystem/observation-category",
                "code": "laboratory"
              }
            ]
          }
        ],
        "code": {
          "coding": [
            {
              "code": "2823-3",
              "system": "http://loinc.org",
              "display": "Potassium [Moles/volume] in Serum or Plasma"
            }
          ],
          "text": "Potassium [Moles/volume] in Serum or Plasma"
        },
        "valueQuantity": {
          "system": "http://unitsofmeasure.org",
          "value": 4.4,
          "unit": "mmol/L",
          "code": "mmol/L"
        },
        "referenceRange": [
          {
            "low": {
              "value": 3.5,
              "code": "mmol/L",
              "system": "http://unitsofmeasure.org"
            }
          },
          {
            "high": {
              "value": 5.1,
              "code": "mmol/L",
              "system": "http://unitsofmeasure.org"
            }
          }
        ],
        "text": {
          "status": "generated",
          "div": "<div xmlns=\"http://www.w3.org/1999/xhtml\"><table class=\"hl7__eu__lab__report\"><tr><th>Test</th><th>10-Jan-2025</th><th>Reference&#xA0;Range</th><th>Unit</th></tr><tr><td>Potassium [Moles/volume] in Serum or Plasma</td><td>4.4</td><td>3.5 - 5.1</td><td></td><td>mmol/L</td></tr></table></div>"
        },
        "status": "final",
        "subject": {
          "reference": "urn:uuid:1cd83a11-c9ab-4df9-908e-9cf57363e1dc",
          "display": "Bettina Sauro"
        },
        "effectiveDateTime": "2025-01-10T14:58:23Z"
      }
    },
    {
      "fullUrl": "urn:uuid:d2fbb6d8-f78e-43d8-877f-b9d4f84f73f9",
      "resource": {
        "resourceType": "Observation",
        "id": "d2fbb6d8-f78e-43d8-877f-b9d4f84f73f9",
        "meta": {
          "profile": [
            "http://hl7.eu/fhir/laboratory/StructureDefinition/Observation-resultslab-eu-lab"
          ]
        },
        "performer": [
          {
            "display": "The Central European Lab"
          }
        ],
        "category": [
          {
            "coding": [
              {
                "system": "http://terminology.hl7.org/CodeSystem/observation-category",
                "code": "laboratory"
              }
            ]
          }
        ],
        "code": {
          "coding": [
            {
              "code": "2075-0",
              "system": "http://loinc.org",
              "display": "Chloride [Moles/volume] in Serum or Plasma"
            }
          ],
          "text": "Chloride [Moles/volume] in Serum or Plasma"
        },
        "valueQuantity": {
          "system": "http://unitsofmeasure.org",
          "value": 105.3,
          "unit": "mmol/L",
          "code": "mmol/L"
        },
        "referenceRange": [
          {
            "low": {
              "value": 98,
              "code": "mmol/L",
              "system": "http://unitsofmeasure.org"
            }
          },
          {
            "high": {
              "value": 108,
              "code": "mmol/L",
              "system": "http://unitsofmeasure.org"
            }
          }
        ],
        "text": {
          "status": "generated",
          "div": "<div xmlns=\"http://www.w3.org/1999/xhtml\"><table class=\"hl7__eu__lab__report\"><tr><th>Test</th><th>10-Jan-2025</th><th>Reference&#xA0;Range</th><th>Unit</th></tr><tr><td>Chloride [Moles/volume] in Serum or Plasma</td><td>105.3</td><td>98 - 108</td><td></td><td>mmol/L</td></tr></table></div>"
        },
        "status": "final",
        "subject": {
          "reference": "urn:uuid:1cd83a11-c9ab-4df9-908e-9cf57363e1dc",
          "display": "Bettina Sauro"
        },
        "effectiveDateTime": "2025-01-10T14:58:23Z"
      }
    },
    {
      "fullUrl": "urn:uuid:393928e2-7e1e-4041-a918-d330c84c7300",
      "resource": {
        "resourceType": "Observation",
        "id": "393928e2-7e1e-4041-a918-d330c84c7300",
        "meta": {
          "profile": [
            "http://hl7.eu/fhir/laboratory/StructureDefinition/Observation-resultslab-eu-lab"
          ]
        },
        "performer": [
          {
            "display": "The Central European Lab"
          }
        ],
        "category": [
          {
            "coding": [
              {
                "system": "http://terminology.hl7.org/CodeSystem/observation-category",
                "code": "laboratory"
              }
            ]
          }
        ],
        "code": {
          "coding": [
            {
              "code": "2028-9",
              "system": "http://loinc.org",
              "display": "Carbon dioxide, total [Moles/volume] in Serum or Plasma"
            }
          ],
          "text": "Carbon dioxide, total [Moles/volume] in Serum or Plasma"
        },
        "valueQuantity": {
          "system": "http://unitsofmeasure.org",
          "value": 28.5,
          "unit": "mmol/L",
          "code": "mmol/L"
        },
        "referenceRange": [
          {
            "low": {
              "value": 22,
              "code": "mmol/L",
              "system": "http://unitsofmeasure.org"
            }
          },
          {
            "high": {
              "value": 32,
              "code": "mmol/L",
              "system": "http://unitsofmeasure.org"
            }
          }
        ],
        "text": {
          "status": "generated",
          "div": "<div xmlns=\"http://www.w3.org/1999/xhtml\"><table class=\"hl7__eu__lab__report\"><tr><th>Test</th><th>10-Jan-2025</th><th>Reference&#xA0;Range</th><th>Unit</th></tr><tr><td>Carbon dioxide, total [Moles/volume] in Serum or Plasma</td><td>28.5</td><td>22 - 32</td><td></td><td>mmol/L</td></tr></table></div>"
        },
        "status": "final",
        "subject": {
          "reference": "urn:uuid:1cd83a11-c9ab-4df9-908e-9cf57363e1dc",
          "display": "Bettina Sauro"
        },
        "effectiveDateTime": "2025-01-10T14:58:23Z"
      }
    },
    {
      "fullUrl": "urn:uuid:45810f65-1990-4deb-a5db-a4710da7d308",
      "resource": {
        "resourceType": "Observation",
        "id": "45810f65-1990-4deb-a5db-a4710da7d308",
        "meta": {
          "profile": [
            "http://hl7.eu/fhir/laboratory/StructureDefinition/Observation-resultslab-eu-lab"
          ]
        },
        "performer": [
          {
            "display": "The Central European Lab"
          }
        ],
        "category": [
          {
            "coding": [
              {
                "system": "http://terminology.hl7.org/CodeSystem/observation-category",
                "code": "laboratory"
              }
            ]
          }
        ],
        "code": {
          "coding": [
            {
              "code": "5767-9",
              "system": "http://loinc.org",
              "display": "Appearance of Urine"
            }
          ],
          "text": "Appearance of Urine"
        },
        "text": {
          "status": "generated",
          "div": "<div xmlns=\"http://www.w3.org/1999/xhtml\"><table class=\"hl7__eu__lab__report\"><tr><th>Test</th><th>10-Jan-2025</th><th>Reference&#xA0;Range</th><th>Unit</th></tr><tr><td>Appearance of Urine</td></tr></table></div>"
        },
        "status": "final",
        "subject": {
          "reference": "urn:uuid:1cd83a11-c9ab-4df9-908e-9cf57363e1dc",
          "display": "Bettina Sauro"
        },
        "effectiveDateTime": "2025-01-10T14:58:23Z"
      }
    },
    {
      "fullUrl": "urn:uuid:51c21eba-be4f-4783-8787-dcc5b2f2c0a7",
      "resource": {
        "resourceType": "Observation",
        "id": "51c21eba-be4f-4783-8787-dcc5b2f2c0a7",
        "meta": {
          "profile": [
            "http://hl7.eu/fhir/laboratory/StructureDefinition/Observation-resultslab-eu-lab"
          ]
        },
        "performer": [
          {
            "display": "The Central European Lab"
          }
        ],
        "category": [
          {
            "coding": [
              {
                "system": "http://terminology.hl7.org/CodeSystem/observation-category",
                "code": "laboratory"
              }
            ]
          }
        ],
        "code": {
          "coding": [
            {
              "code": "34533-0",
              "system": "http://loinc.org",
              "display": "Odor of Urine"
            }
          ],
          "text": "Odor of Urine"
        },
        "text": {
          "status": "generated",
          "div": "<div xmlns=\"http://www.w3.org/1999/xhtml\"><table class=\"hl7__eu__lab__report\"><tr><th>Test</th><th>10-Jan-2025</th><th>Reference&#xA0;Range</th><th>Unit</th></tr><tr><td>Odor of Urine</td></tr></table></div>"
        },
        "status": "final",
        "subject": {
          "reference": "urn:uuid:1cd83a11-c9ab-4df9-908e-9cf57363e1dc",
          "display": "Bettina Sauro"
        },
        "effectiveDateTime": "2025-01-10T14:58:23Z"
      }
    },
    {
      "fullUrl": "urn:uuid:c2f4edfc-dfcb-4119-9092-df0e2abfef72",
      "resource": {
        "resourceType": "Observation",
        "id": "c2f4edfc-dfcb-4119-9092-df0e2abfef72",
        "meta": {
          "profile": [
            "http://hl7.eu/fhir/laboratory/StructureDefinition/Observation-resultslab-eu-lab"
          ]
        },
        "performer": [
          {
            "display": "The Central European Lab"
          }
        ],
        "category": [
          {
            "coding": [
              {
                "system": "http://terminology.hl7.org/CodeSystem/observation-category",
                "code": "laboratory"
              }
            ]
          }
        ],
        "code": {
          "coding": [
            {
              "code": "32167-9",
              "system": "http://loinc.org",
              "display": "Clarity of Urine"
            }
          ],
          "text": "Clarity of Urine"
        },
        "text": {
          "status": "generated",
          "div": "<div xmlns=\"http://www.w3.org/1999/xhtml\"><table class=\"hl7__eu__lab__report\"><tr><th>Test</th><th>10-Jan-2025</th><th>Reference&#xA0;Range</th><th>Unit</th></tr><tr><td>Clarity of Urine</td></tr></table></div>"
        },
        "status": "final",
        "subject": {
          "reference": "urn:uuid:1cd83a11-c9ab-4df9-908e-9cf57363e1dc",
          "display": "Bettina Sauro"
        },
        "effectiveDateTime": "2025-01-10T14:58:23Z"
      }
    },
    {
      "fullUrl": "urn:uuid:b1bce2fc-d749-4a69-9ecd-00db3279ec83",
      "resource": {
        "resourceType": "Observation",
        "id": "b1bce2fc-d749-4a69-9ecd-00db3279ec83",
        "meta": {
          "profile": [
            "http://hl7.eu/fhir/laboratory/StructureDefinition/Observation-resultslab-eu-lab"
          ]
        },
        "performer": [
          {
            "display": "The Central European Lab"
          }
        ],
        "category": [
          {
            "coding": [
              {
                "system": "http://terminology.hl7.org/CodeSystem/observation-category",
                "code": "laboratory"
              }
            ]
          }
        ],
        "code": {
          "coding": [
            {
              "code": "5778-6",
              "system": "http://loinc.org",
              "display": "Color of Urine"
            }
          ],
          "text": "Color of Urine"
        },
        "text": {
          "status": "generated",
          "div": "<div xmlns=\"http://www.w3.org/1999/xhtml\"><table class=\"hl7__eu__lab__report\"><tr><th>Test</th><th>10-Jan-2025</th><th>Reference&#xA0;Range</th><th>Unit</th></tr><tr><td>Color of Urine</td></tr></table></div>"
        },
        "status": "final",
        "subject": {
          "reference": "urn:uuid:1cd83a11-c9ab-4df9-908e-9cf57363e1dc",
          "display": "Bettina Sauro"
        },
        "effectiveDateTime": "2025-01-10T14:58:23Z"
      }
    },
    {
      "fullUrl": "urn:uuid:4e2d0430-01e3-4b1a-8bc5-42d7d0f6f688",
      "resource": {
        "resourceType": "Observation",
        "id": "4e2d0430-01e3-4b1a-8bc5-42d7d0f6f688",
        "meta": {
          "profile": [
            "http://hl7.eu/fhir/laboratory/StructureDefinition/Observation-resultslab-eu-lab"
          ]
        },
        "performer": [
          {
            "display": "The Central European Lab"
          }
        ],
        "category": [
          {
            "coding": [
              {
                "system": "http://terminology.hl7.org/CodeSystem/observation-category",
                "code": "laboratory"
              }
            ]
          }
        ],
        "code": {
          "coding": [
            {
              "code": "5792-7",
              "system": "http://loinc.org",
              "display": "Glucose [Mass/volume] in Urine by Test strip"
            }
          ],
          "text": "Glucose [Mass/volume] in Urine by Test strip"
        },
        "valueQuantity": {
          "system": "http://unitsofmeasure.org",
          "value": 1.4,
          "unit": "mg/dL",
          "code": "mg/dL"
        },
        "referenceRange": [
          {
            "low": {
              "value": 0,
              "code": "mg/dL",
              "system": "http://unitsofmeasure.org"
            }
          },
          {
            "high": {
              "value": 0.8,
              "code": "mg/dL",
              "system": "http://unitsofmeasure.org"
            }
          }
        ],
        "interpretation": [
          {
            "coding": [
              {
                "code": "H",
                "system": "http://terminology.hl7.org/CodeSystem/v3-ObservationInterpretation",
                "display": "High"
              }
            ]
          }
        ],
        "text": {
          "status": "generated",
          "div": "<div xmlns=\"http://www.w3.org/1999/xhtml\"><table class=\"hl7__eu__lab__report\"><tr><th>Test</th><th>10-Jan-2025</th><th>Reference&#xA0;Range</th><th>Unit</th></tr><tr><td>Glucose [Mass/volume] in Urine by Test strip</td><td>1.4</td><td>0 - 0.8</td><td>H</td><td>mg/dL</td></tr></table></div>"
        },
        "status": "final",
        "subject": {
          "reference": "urn:uuid:1cd83a11-c9ab-4df9-908e-9cf57363e1dc",
          "display": "Bettina Sauro"
        },
        "effectiveDateTime": "2025-01-10T14:58:23Z"
      }
    },
    {
      "fullUrl": "urn:uuid:fef921fe-c888-4651-b1af-feaa39d7ea60",
      "resource": {
        "resourceType": "Observation",
        "id": "fef921fe-c888-4651-b1af-feaa39d7ea60",
        "meta": {
          "profile": [
            "http://hl7.eu/fhir/laboratory/StructureDefinition/Observation-resultslab-eu-lab"
          ]
        },
        "performer": [
          {
            "display": "The Central European Lab"
          }
        ],
        "category": [
          {
            "coding": [
              {
                "system": "http://terminology.hl7.org/CodeSystem/observation-category",
                "code": "laboratory"
              }
            ]
          }
        ],
        "code": {
          "coding": [
            {
              "code": "25428-4",
              "system": "http://loinc.org",
              "display": "Glucose [Presence] in Urine by Test strip"
            }
          ],
          "text": "Glucose [Presence] in Urine by Test strip"
        },
        "text": {
          "status": "generated",
          "div": "<div xmlns=\"http://www.w3.org/1999/xhtml\"><table class=\"hl7__eu__lab__report\"><tr><th>Test</th><th>10-Jan-2025</th><th>Reference&#xA0;Range</th><th>Unit</th></tr><tr><td>Glucose [Presence] in Urine by Test strip</td></tr></table></div>"
        },
        "status": "final",
        "subject": {
          "reference": "urn:uuid:1cd83a11-c9ab-4df9-908e-9cf57363e1dc",
          "display": "Bettina Sauro"
        },
        "effectiveDateTime": "2025-01-10T14:58:23Z"
      }
    },
    {
      "fullUrl": "urn:uuid:7423c5ae-2837-4d60-8a0d-40b886008f4f",
      "resource": {
        "resourceType": "Observation",
        "id": "7423c5ae-2837-4d60-8a0d-40b886008f4f",
        "meta": {
          "profile": [
            "http://hl7.eu/fhir/laboratory/StructureDefinition/Observation-resultslab-eu-lab"
          ]
        },
        "performer": [
          {
            "display": "The Central European Lab"
          }
        ],
        "category": [
          {
            "coding": [
              {
                "system": "http://terminology.hl7.org/CodeSystem/observation-category",
                "code": "laboratory"
              }
            ]
          }
        ],
        "code": {
          "coding": [
            {
              "code": "20505-4",
              "system": "http://loinc.org",
              "display": "Bilirubin.total [Mass/volume] in Urine by Test strip"
            }
          ],
          "text": "Bilirubin.total [Mass/volume] in Urine by Test strip"
        },
        "valueQuantity": {
          "system": "http://unitsofmeasure.org",
          "value": 0.9,
          "unit": "mg/dL",
          "code": "mg/dL"
        },
        "referenceRange": [
          {
            "low": {
              "value": 0,
              "code": "mg/dL",
              "system": "http://unitsofmeasure.org"
            }
          },
          {
            "high": {
              "value": 1,
              "code": "mg/dL",
              "system": "http://unitsofmeasure.org"
            }
          }
        ],
        "text": {
          "status": "generated",
          "div": "<div xmlns=\"http://www.w3.org/1999/xhtml\"><table class=\"hl7__eu__lab__report\"><tr><th>Test</th><th>10-Jan-2025</th><th>Reference&#xA0;Range</th><th>Unit</th></tr><tr><td>Bilirubin.total [Mass/volume] in Urine by Test strip</td><td>0.9</td><td>0 - 1</td><td></td><td>mg/dL</td></tr></table></div>"
        },
        "status": "final",
        "subject": {
          "reference": "urn:uuid:1cd83a11-c9ab-4df9-908e-9cf57363e1dc",
          "display": "Bettina Sauro"
        },
        "effectiveDateTime": "2025-01-10T14:58:23Z"
      }
    },
    {
      "fullUrl": "urn:uuid:90f02cb6-a8ea-4ce0-8330-6cca48f03b37",
      "resource": {
        "resourceType": "Observation",
        "id": "90f02cb6-a8ea-4ce0-8330-6cca48f03b37",
        "meta": {
          "profile": [
            "http://hl7.eu/fhir/laboratory/StructureDefinition/Observation-resultslab-eu-lab"
          ]
        },
        "performer": [
          {
            "display": "The Central European Lab"
          }
        ],
        "category": [
          {
            "coding": [
              {
                "system": "http://terminology.hl7.org/CodeSystem/observation-category",
                "code": "laboratory"
              }
            ]
          }
        ],
        "code": {
          "coding": [
            {
              "code": "5770-3",
              "system": "http://loinc.org",
              "display": "Bilirubin.total [Presence] in Urine by Test strip"
            }
          ],
          "text": "Bilirubin.total [Presence] in Urine by Test strip"
        },
        "text": {
          "status": "generated",
          "div": "<div xmlns=\"http://www.w3.org/1999/xhtml\"><table class=\"hl7__eu__lab__report\"><tr><th>Test</th><th>10-Jan-2025</th><th>Reference&#xA0;Range</th><th>Unit</th></tr><tr><td>Bilirubin.total [Presence] in Urine by Test strip</td></tr></table></div>"
        },
        "status": "final",
        "subject": {
          "reference": "urn:uuid:1cd83a11-c9ab-4df9-908e-9cf57363e1dc",
          "display": "Bettina Sauro"
        },
        "effectiveDateTime": "2025-01-10T14:58:23Z"
      }
    },
    {
      "fullUrl": "urn:uuid:1e9039cf-d649-48a3-82b7-490366cc22fd",
      "resource": {
        "resourceType": "Observation",
        "id": "1e9039cf-d649-48a3-82b7-490366cc22fd",
        "meta": {
          "profile": [
            "http://hl7.eu/fhir/laboratory/StructureDefinition/Observation-resultslab-eu-lab"
          ]
        },
        "performer": [
          {
            "display": "The Central European Lab"
          }
        ],
        "category": [
          {
            "coding": [
              {
                "system": "http://terminology.hl7.org/CodeSystem/observation-category",
                "code": "laboratory"
              }
            ]
          }
        ],
        "code": {
          "coding": [
            {
              "code": "5797-6",
              "system": "http://loinc.org",
              "display": "Ketones [Mass/volume] in Urine by Test strip"
            }
          ],
          "text": "Ketones [Mass/volume] in Urine by Test strip"
        },
        "valueQuantity": {
          "system": "http://unitsofmeasure.org",
          "value": 8.7,
          "unit": "mg/dL",
          "code": "mg/dL"
        },
        "referenceRange": [
          {
            "low": {
              "value": 0,
              "code": "mg/dL",
              "system": "http://unitsofmeasure.org"
            }
          },
          {
            "high": {
              "value": 20,
              "code": "mg/dL",
              "system": "http://unitsofmeasure.org"
            }
          }
        ],
        "text": {
          "status": "generated",
          "div": "<div xmlns=\"http://www.w3.org/1999/xhtml\"><table class=\"hl7__eu__lab__report\"><tr><th>Test</th><th>10-Jan-2025</th><th>Reference&#xA0;Range</th><th>Unit</th></tr><tr><td>Ketones [Mass/volume] in Urine by Test strip</td><td>8.7</td><td>0 - 20</td><td></td><td>mg/dL</td></tr></table></div>"
        },
        "status": "final",
        "subject": {
          "reference": "urn:uuid:1cd83a11-c9ab-4df9-908e-9cf57363e1dc",
          "display": "Bettina Sauro"
        },
        "effectiveDateTime": "2025-01-10T14:58:23Z"
      }
    },
    {
      "fullUrl": "urn:uuid:151da045-a251-40fb-8645-9d6f019b9017",
      "resource": {
        "resourceType": "Observation",
        "id": "151da045-a251-40fb-8645-9d6f019b9017",
        "meta": {
          "profile": [
            "http://hl7.eu/fhir/laboratory/StructureDefinition/Observation-resultslab-eu-lab"
          ]
        },
        "performer": [
          {
            "display": "The Central European Lab"
          }
        ],
        "category": [
          {
            "coding": [
              {
                "system": "http://terminology.hl7.org/CodeSystem/observation-category",
                "code": "laboratory"
              }
            ]
          }
        ],
        "code": {
          "coding": [
            {
              "code": "2514-8",
              "system": "http://loinc.org",
              "display": "Ketones [Presence] in Urine by Test strip"
            }
          ],
          "text": "Ketones [Presence] in Urine by Test strip"
        },
        "text": {
          "status": "generated",
          "div": "<div xmlns=\"http://www.w3.org/1999/xhtml\"><table class=\"hl7__eu__lab__report\"><tr><th>Test</th><th>10-Jan-2025</th><th>Reference&#xA0;Range</th><th>Unit</th></tr><tr><td>Ketones [Presence] in Urine by Test strip</td></tr></table></div>"
        },
        "status": "final",
        "subject": {
          "reference": "urn:uuid:1cd83a11-c9ab-4df9-908e-9cf57363e1dc",
          "display": "Bettina Sauro"
        },
        "effectiveDateTime": "2025-01-10T14:58:23Z"
      }
    },
    {
      "fullUrl": "urn:uuid:0caca442-e5b5-4d13-9f96-126ed4b3c649",
      "resource": {
        "resourceType": "Observation",
        "id": "0caca442-e5b5-4d13-9f96-126ed4b3c649",
        "meta": {
          "profile": [
            "http://hl7.eu/fhir/laboratory/StructureDefinition/Observation-resultslab-eu-lab"
          ]
        },
        "performer": [
          {
            "display": "The Central European Lab"
          }
        ],
        "category": [
          {
            "coding": [
              {
                "system": "http://terminology.hl7.org/CodeSystem/observation-category",
                "code": "laboratory"
              }
            ]
          }
        ],
        "code": {
          "coding": [
            {
              "code": "5811-5",
              "system": "http://loinc.org",
              "display": "Specific gravity of Urine by Test strip"
            }
          ],
          "text": "Specific gravity of Urine by Test strip"
        },
        "valueQuantity": {
          "system": "http://unitsofmeasure.org",
          "value": 1,
          "unit": "{nominal}",
          "code": "{nominal}"
        },
        "referenceRange": [
          {
            "low": {
              "value": 1.005,
              "code": "g/mL",
              "system": "http://unitsofmeasure.org"
            }
          },
          {
            "high": {
              "value": 1.03,
              "code": "g/mL",
              "system": "http://unitsofmeasure.org"
            }
          }
        ],
        "interpretation": [
          {
            "coding": [
              {
                "code": "L",
                "system": "http://terminology.hl7.org/CodeSystem/v3-ObservationInterpretation",
                "display": "Low"
              }
            ]
          }
        ],
        "text": {
          "status": "generated",
          "div": "<div xmlns=\"http://www.w3.org/1999/xhtml\"><table class=\"hl7__eu__lab__report\"><tr><th>Test</th><th>10-Jan-2025</th><th>Reference&#xA0;Range</th><th>Unit</th></tr><tr><td>Specific gravity of Urine by Test strip</td><td>1.0</td><td>1.005 - 1.03</td><td>L</td><td>{nominal}</td></tr></table></div>"
        },
        "status": "final",
        "subject": {
          "reference": "urn:uuid:1cd83a11-c9ab-4df9-908e-9cf57363e1dc",
          "display": "Bettina Sauro"
        },
        "effectiveDateTime": "2025-01-10T14:58:23Z"
      }
    },
    {
      "fullUrl": "urn:uuid:60b29293-963f-4aac-8bb7-b7902e5f6a09",
      "resource": {
        "resourceType": "Observation",
        "id": "60b29293-963f-4aac-8bb7-b7902e5f6a09",
        "meta": {
          "profile": [
            "http://hl7.eu/fhir/laboratory/StructureDefinition/Observation-resultslab-eu-lab"
          ]
        },
        "performer": [
          {
            "display": "The Central European Lab"
          }
        ],
        "category": [
          {
            "coding": [
              {
                "system": "http://terminology.hl7.org/CodeSystem/observation-category",
                "code": "laboratory"
              }
            ]
          }
        ],
        "code": {
          "coding": [
            {
              "code": "5803-2",
              "system": "http://loinc.org",
              "display": "pH of Urine by Test strip"
            }
          ],
          "text": "pH of Urine by Test strip"
        },
        "valueQuantity": {
          "system": "http://unitsofmeasure.org",
          "value": 5.4,
          "unit": "pH",
          "code": "pH"
        },
        "referenceRange": [
          {
            "low": {
              "value": 4.6,
              "code": "pH",
              "system": "http://unitsofmeasure.org"
            }
          },
          {
            "high": {
              "value": 7,
              "code": "pH",
              "system": "http://unitsofmeasure.org"
            }
          }
        ],
        "text": {
          "status": "generated",
          "div": "<div xmlns=\"http://www.w3.org/1999/xhtml\"><table class=\"hl7__eu__lab__report\"><tr><th>Test</th><th>10-Jan-2025</th><th>Reference&#xA0;Range</th><th>Unit</th></tr><tr><td>pH of Urine by Test strip</td><td>5.4</td><td>4.6 - 7</td><td></td><td>pH</td></tr></table></div>"
        },
        "status": "final",
        "subject": {
          "reference": "urn:uuid:1cd83a11-c9ab-4df9-908e-9cf57363e1dc",
          "display": "Bettina Sauro"
        },
        "effectiveDateTime": "2025-01-10T14:58:23Z"
      }
    },
    {
      "fullUrl": "urn:uuid:f1076414-19b7-4e9c-aa3d-d28283da3823",
      "resource": {
        "resourceType": "Observation",
        "id": "f1076414-19b7-4e9c-aa3d-d28283da3823",
        "meta": {
          "profile": [
            "http://hl7.eu/fhir/laboratory/StructureDefinition/Observation-resultslab-eu-lab"
          ]
        },
        "performer": [
          {
            "display": "The Central European Lab"
          }
        ],
        "category": [
          {
            "coding": [
              {
                "system": "http://terminology.hl7.org/CodeSystem/observation-category",
                "code": "laboratory"
              }
            ]
          }
        ],
        "code": {
          "coding": [
            {
              "code": "5804-0",
              "system": "http://loinc.org",
              "display": "Protein [Mass/volume] in Urine by Test strip"
            }
          ],
          "text": "Protein [Mass/volume] in Urine by Test strip"
        },
        "valueQuantity": {
          "system": "http://unitsofmeasure.org",
          "value": 282.9,
          "unit": "mg/dL",
          "code": "mg/dL"
        },
        "referenceRange": [
          {
            "low": {
              "value": 0,
              "code": "mg/dL",
              "system": "http://unitsofmeasure.org"
            }
          },
          {
            "high": {
              "value": 14,
              "code": "mg/dL",
              "system": "http://unitsofmeasure.org"
            }
          }
        ],
        "interpretation": [
          {
            "coding": [
              {
                "code": "H",
                "system": "http://terminology.hl7.org/CodeSystem/v3-ObservationInterpretation",
                "display": "High"
              }
            ]
          }
        ],
        "text": {
          "status": "generated",
          "div": "<div xmlns=\"http://www.w3.org/1999/xhtml\"><table class=\"hl7__eu__lab__report\"><tr><th>Test</th><th>10-Jan-2025</th><th>Reference&#xA0;Range</th><th>Unit</th></tr><tr><td>Protein [Mass/volume] in Urine by Test strip</td><td>282.9</td><td>0 - 14</td><td>H</td><td>mg/dL</td></tr></table></div>"
        },
        "status": "final",
        "subject": {
          "reference": "urn:uuid:1cd83a11-c9ab-4df9-908e-9cf57363e1dc",
          "display": "Bettina Sauro"
        },
        "effectiveDateTime": "2025-01-10T14:58:23Z"
      }
    },
    {
      "fullUrl": "urn:uuid:7ce6c1a1-011c-4a17-b170-f7326698d76a",
      "resource": {
        "resourceType": "Observation",
        "id": "7ce6c1a1-011c-4a17-b170-f7326698d76a",
        "meta": {
          "profile": [
            "http://hl7.eu/fhir/laboratory/StructureDefinition/Observation-resultslab-eu-lab"
          ]
        },
        "performer": [
          {
            "display": "The Central European Lab"
          }
        ],
        "category": [
          {
            "coding": [
              {
                "system": "http://terminology.hl7.org/CodeSystem/observation-category",
                "code": "laboratory"
              }
            ]
          }
        ],
        "code": {
          "coding": [
            {
              "code": "20454-5",
              "system": "http://loinc.org",
              "display": "Protein [Presence] in Urine by Test strip"
            }
          ],
          "text": "Protein [Presence] in Urine by Test strip"
        },
        "text": {
          "status": "generated",
          "div": "<div xmlns=\"http://www.w3.org/1999/xhtml\"><table class=\"hl7__eu__lab__report\"><tr><th>Test</th><th>10-Jan-2025</th><th>Reference&#xA0;Range</th><th>Unit</th></tr><tr><td>Protein [Presence] in Urine by Test strip</td></tr></table></div>"
        },
        "status": "final",
        "subject": {
          "reference": "urn:uuid:1cd83a11-c9ab-4df9-908e-9cf57363e1dc",
          "display": "Bettina Sauro"
        },
        "effectiveDateTime": "2025-01-10T14:58:23Z"
      }
    },
    {
      "fullUrl": "urn:uuid:43a46379-b38c-40cb-b365-8745deefb347",
      "resource": {
        "resourceType": "Observation",
        "id": "43a46379-b38c-40cb-b365-8745deefb347",
        "meta": {
          "profile": [
            "http://hl7.eu/fhir/laboratory/StructureDefinition/Observation-resultslab-eu-lab"
          ]
        },
        "performer": [
          {
            "display": "The Central European Lab"
          }
        ],
        "category": [
          {
            "coding": [
              {
                "system": "http://terminology.hl7.org/CodeSystem/observation-category",
                "code": "laboratory"
              }
            ]
          }
        ],
        "code": {
          "coding": [
            {
              "code": "5802-4",
              "system": "http://loinc.org",
              "display": "Nitrite [Presence] in Urine by Test strip"
            }
          ],
          "text": "Nitrite [Presence] in Urine by Test strip"
        },
        "text": {
          "status": "generated",
          "div": "<div xmlns=\"http://www.w3.org/1999/xhtml\"><table class=\"hl7__eu__lab__report\"><tr><th>Test</th><th>10-Jan-2025</th><th>Reference&#xA0;Range</th><th>Unit</th></tr><tr><td>Nitrite [Presence] in Urine by Test strip</td></tr></table></div>"
        },
        "status": "final",
        "subject": {
          "reference": "urn:uuid:1cd83a11-c9ab-4df9-908e-9cf57363e1dc",
          "display": "Bettina Sauro"
        },
        "effectiveDateTime": "2025-01-10T14:58:23Z"
      }
    },
    {
      "fullUrl": "urn:uuid:dcba27de-180c-49e0-aa33-3320ab3b8d16",
      "resource": {
        "resourceType": "Observation",
        "id": "dcba27de-180c-49e0-aa33-3320ab3b8d16",
        "meta": {
          "profile": [
            "http://hl7.eu/fhir/laboratory/StructureDefinition/Observation-resultslab-eu-lab"
          ]
        },
        "performer": [
          {
            "display": "The Central European Lab"
          }
        ],
        "category": [
          {
            "coding": [
              {
                "system": "http://terminology.hl7.org/CodeSystem/observation-category",
                "code": "laboratory"
              }
            ]
          }
        ],
        "code": {
          "coding": [
            {
              "code": "5794-3",
              "system": "http://loinc.org",
              "display": "Hemoglobin [Presence] in Urine by Test strip"
            }
          ],
          "text": "Hemoglobin [Presence] in Urine by Test strip"
        },
        "text": {
          "status": "generated",
          "div": "<div xmlns=\"http://www.w3.org/1999/xhtml\"><table class=\"hl7__eu__lab__report\"><tr><th>Test</th><th>10-Jan-2025</th><th>Reference&#xA0;Range</th><th>Unit</th></tr><tr><td>Hemoglobin [Presence] in Urine by Test strip</td></tr></table></div>"
        },
        "status": "final",
        "subject": {
          "reference": "urn:uuid:1cd83a11-c9ab-4df9-908e-9cf57363e1dc",
          "display": "Bettina Sauro"
        },
        "effectiveDateTime": "2025-01-10T14:58:23Z"
      }
    },
    {
      "fullUrl": "urn:uuid:525b9762-e1bb-400f-ac4f-7f06b1148ded",
      "resource": {
        "resourceType": "Observation",
        "id": "525b9762-e1bb-400f-ac4f-7f06b1148ded",
        "meta": {
          "profile": [
            "http://hl7.eu/fhir/laboratory/StructureDefinition/Observation-resultslab-eu-lab"
          ]
        },
        "performer": [
          {
            "display": "The Central European Lab"
          }
        ],
        "category": [
          {
            "coding": [
              {
                "system": "http://terminology.hl7.org/CodeSystem/observation-category",
                "code": "laboratory"
              }
            ]
          }
        ],
        "code": {
          "coding": [
            {
              "code": "5799-2",
              "system": "http://loinc.org",
              "display": "Leukocyte esterase [Presence] in Urine by Test strip"
            }
          ],
          "text": "Leukocyte esterase [Presence] in Urine by Test strip"
        },
        "text": {
          "status": "generated",
          "div": "<div xmlns=\"http://www.w3.org/1999/xhtml\"><table class=\"hl7__eu__lab__report\"><tr><th>Test</th><th>10-Jan-2025</th><th>Reference&#xA0;Range</th><th>Unit</th></tr><tr><td>Leukocyte esterase [Presence] in Urine by Test strip</td></tr></table></div>"
        },
        "status": "final",
        "subject": {
          "reference": "urn:uuid:1cd83a11-c9ab-4df9-908e-9cf57363e1dc",
          "display": "Bettina Sauro"
        },
        "effectiveDateTime": "2025-01-10T14:58:23Z"
      }
    },
    {
      "fullUrl": "urn:uuid:5f592008-0982-4415-bd79-77ead945922e",
      "resource": {
        "resourceType": "DeviceUseStatement",
        "id": "5f592008-0982-4415-bd79-77ead945922e",
        "meta": {
          "profile": [
            "http://hl7.eu/fhir/eps/StructureDefinition/deviceUseStatement-eu-eps"
          ]
        },
        "timingPeriod": {
          "start": "1991-05-14"
        },
        "text": {
          "status": "generated",
          "div": "<div xmlns=\"http://www.w3.org/1999/xhtml\"><table class=\"hl7__ips\"><tr><td>Home nebulizer (physical object)</td><td><span class=\"nb\">14-May-1991</span></td></tr></table></div>"
        },
        "status": "active",
        "device": {
          "reference": "urn:uuid:eee7a992-c251-44a8-8989-3a2cb523f2bf",
          "display": "Home nebulizer (physical object)"
        },
        "subject": {
          "reference": "urn:uuid:1cd83a11-c9ab-4df9-908e-9cf57363e1dc",
          "display": "Bettina Sauro"
        }
      }
    },
    {
      "fullUrl": "urn:uuid:eee7a992-c251-44a8-8989-3a2cb523f2bf",
      "resource": {
        "resourceType": "Device",
        "id": "eee7a992-c251-44a8-8989-3a2cb523f2bf",
        "meta": {
          "profile": [
            "http://hl7.eu/fhir/eps/StructureDefinition/device-eu-eps"
          ]
        },
        "udiCarrier": [
          {
            "id": "(01)24752530826835(11)910423(17)160507(10)53687961893(21)63559491"
          }
        ],
        "status": "active",
        "patient": {
          "reference": "urn:uuid:1cd83a11-c9ab-4df9-908e-9cf57363e1dc",
          "display": "Bettina Sauro"
        },
        "type": {
          "coding": [
            {
              "code": "170615005",
              "system": "http://snomed.info/sct",
              "display": "Home nebulizer (physical object)"
            }
          ]
        }
      }
    },
    {
      "fullUrl": "urn:uuid:4be391e9-a31c-4d08-822e-13c5acd2cfdf",
      "resource": {
        "resourceType": "Device",
        "id": "4be391e9-a31c-4d08-822e-13c5acd2cfdf",
        "deviceName": [
          {
            "name": "SYNDERAI Synthetic Generator",
            "type": "manufacturer-name"
          }
        ],
        "version": [
          {
            "value": "5.0"
          }
        ],
        "text": {
          "status": "generated",
          "div": "<div xmlns=\"http://www.w3.org/1999/xhtml\">SYNDERAI Synthetic Generator v5.0</div>"
        },
        "status": "active",
        "distinctIdentifier": "synderai-generator-50",
        "manufacturer": "SYNDERAI Project"
      }
    },
    {
      "fullUrl": "urn:uuid:950c0c51-c959-428e-ac15-b7b4d82ae35a",
      "resource": {
        "resourceType": "Provenance",
        "id": "950c0c51-c959-428e-ac15-b7b4d82ae35a",
        "target": [
          {
            "reference": "Patient/1cd83a11-c9ab-4df9-908e-9cf57363e1dc"
          },
          {
            "reference": "Bundle/4827f36b-d23d-4a7d-aac0-f26d36b61a69"
          },
          {
            "reference": "Composition/d79e2e1d-6af5-4a3a-bbb5-ee5feb452e58"
          },
          {
            "reference": "PractitionerRole/9fd3fcc9-b13f-4598-b94e-5d001d282196"
          },
          {
            "reference": "Organization/6607815f-45d2-425e-aab1-1b84e2206c36"
          },
          {
            "reference": "Practitioner/c39ea82d-3cd4-4e8d-bf81-7d020287f018"
          }
        ],
        "activity": {
          "text": "Synthetic Example Data Generation"
        },
        "policy": [
          "https://synderai.net/synderai-synthetic-data-policy"
        ],
        "agent": [
          {
            "type": {
              "text": "author"
            },
            "who": {
              "reference": "Device/4be391e9-a31c-4d08-822e-13c5acd2cfdf"
            }
          }
        ],
        "reason": [
          {
            "text": "Interoperability Testing and Training (non-clinical use)"
          }
        ],
        "text": {
          "status": "generated",
          "div": "<div xmlns=\"http://www.w3.org/1999/xhtml\">Provenance for SYNDERAI Synthetic Example Data Resource</div>"
        },
        "recorded": "2025-01-10T14:58:23Z"
      }
    }
  ],
  "type": "document",
  "timestamp": "2025-01-10T14:58:23Z"
}
