{
  "resourceType": "Bundle",
  "id": "f56c5432-ee7c-4808-98d2-a832b0b1c2de",
  "meta": {
    "profile": [
      "http://hl7.eu/fhir/eps/StructureDefinition/bundle-eu-eps"
    ]
  },
  "identifier": {
    "assigner": {
      "display": "HL7 Europe"
    },
    "system": "urn:oid:2.16.840.1.113883.2.51.999",
    "value": "e77dba31-ce17-4354-a61c-61d7b3309459"
  },
  "entry": [
    {
      "fullUrl": "urn:uuid:ace9bfda-9c25-4a01-b892-d1fe39cfe815",
      "resource": {
        "resourceType": "Composition",
        "id": "ace9bfda-9c25-4a01-b892-d1fe39cfe815",
        "meta": {
          "security": [
            {
              "system": "http://terminology.hl7.org/CodeSystem/v3-ActReason",
              "code": "HTEST"
            },
            {
              "system": "http://terminology.hl7.org/CodeSystem/v3-ActReason",
              "code": "TRAIN"
            }
          ],
          "tag": [
            {
              "system": "https://synderai.net/fhir/CodeSystem/tags",
              "code": "synthetic",
              "display": "SYNDERAI Synthetic data"
            }
          ],
          "profile": [
            "http://hl7.eu/fhir/eps/StructureDefinition/composition-eu-eps"
          ]
        },
        "identifier": {
          "assigner": {
            "display": "HL7 Europe"
          },
          "system": "urn:oid:2.16.840.1.113883.2.51.999",
          "value": "9e477520-68dc-4c92-8000-cc36f30f78ac"
        },
        "type": {
          "coding": [
            {
              "code": "60591-5",
              "system": "http://loinc.org",
              "display": "Patient summary Document"
            }
          ],
          "text": "Patient summary Document"
        },
        "author": [
          {
            "reference": "urn:uuid:03667e88-b09c-4f07-b206-d89d51355689"
          }
        ],
        "section": [
          {
            "text": {
              "status": "generated",
              "div": "<div xmlns=\"http://www.w3.org/1999/xhtml\"><table class=\"hl7__ips\"><tr><th>Condition</th><th>Onset Date</th><th>Status</th></tr><tr><td>Osteoporosis</td><td><span class=\"nb\">24-Feb-2021</span></td><td>active</td></tr><tr><td>Chronic kidney disease stage 2</td><td><span class=\"nb\">05-Sep-2018</span></td><td>active</td></tr><tr><td>Microalbuminuria due to type 2 diabetes mellitus</td><td><span class=\"nb\">05-Sep-2018</span></td><td>active</td></tr><tr><td>Essential hypertension</td><td><span class=\"nb\">05-Jul-2017</span></td><td>active</td></tr><tr><td>Hyperglycemia</td><td><span class=\"nb\">05-Jul-2017</span></td><td>active</td></tr><tr><td>Disorder of kidney due to diabetes mellitus</td><td><span class=\"nb\">05-Jul-2017</span></td><td>active</td></tr><tr><td>Metabolic syndrome X</td><td><span class=\"nb\">05-Jul-2017</span></td><td>active</td></tr><tr><td>Hypertriglyceridemia</td><td><span class=\"nb\">05-Jul-2017</span></td><td>active</td></tr><tr><td>Ischemic heart disease</td><td><span class=\"nb\">05-Jul-2017</span></td><td>active</td></tr><tr><td>Chronic kidney disease stage 1</td><td><span class=\"nb\">05-Jul-2017</span></td><td>active</td></tr><tr><td>Neuropathy due to type 2 diabetes mellitus</td><td><span class=\"nb\">05-Jul-2017</span></td><td>active</td></tr><tr><td>Type 2 diabetes mellitus</td><td><span class=\"nb\">29-Jun-2016</span></td><td>active</td></tr><tr><td>Osteoarthritis of hip</td><td><span class=\"nb\">18-Feb-1979</span></td><td>active</td></tr><tr><td>Sepsis</td><td><span class=\"nb\">07-Jun-1977</span></td><td>active</td></tr><tr><td>Prediabetes</td><td><span class=\"nb\">08-Dec-1971</span></td><td>active</td></tr></table></div>"
            },
            "entry": [
              {
                "reference": "urn:uuid:493c0fc8-4a1b-4045-a5a5-d9a9674d1a04"
              }
            ],
            "code": {
              "coding": [
                {
                  "system": "http://loinc.org",
                  "code": "11450-4",
                  "display": "Problem list - Reported"
                }
              ]
            },
            "title": "Problem list"
          },
          {
            "text": {
              "status": "generated",
              "div": "<div xmlns=\"http://www.w3.org/1999/xhtml\"><table class=\"hl7__ips\"><tr><td>No known medications</td></tr></table></div>"
            },
            "entry": [
              {
                "reference": "urn:uuid:256bbf1f-0673-492d-a055-8bd3906e31d4"
              }
            ],
            "code": {
              "coding": [
                {
                  "system": "http://loinc.org",
                  "code": "10160-0",
                  "display": "History of Medication use Narrative"
                }
              ]
            },
            "title": "Medication list"
          },
          {
            "text": {
              "status": "generated",
              "div": "<div xmlns=\"http://www.w3.org/1999/xhtml\"><table class=\"hl7__ips\"><tr><th>Vaccine</th><th>Date</th></tr><tr><td>Influenza virus antigen only vaccine product</td><td><span class=\"nb\">13-Aug-2024</span></td></tr><tr><td>Clostridium tetani toxoid antigen adsorbed only vaccine product</td><td><span class=\"nb\">17-May-2022</span></td></tr><tr><td>SARS-CoV-2 mRNA vaccine</td><td><span class=\"nb\">02-Mar-2021</span></td></tr></table></div>"
            },
            "entry": [
              {
                "reference": "urn:uuid:99cdb0e8-84e8-444b-845f-2fd4ba9db3e3"
              }
            ],
            "code": {
              "coding": [
                {
                  "system": "http://loinc.org",
                  "code": "11369-6",
                  "display": "History of Immunization note"
                }
              ]
            },
            "title": "Immunizations list"
          },
          {
            "text": {
              "status": "generated",
              "div": "<div xmlns=\"http://www.w3.org/1999/xhtml\"><table class=\"hl7__ips\"><tr><th>Procedure</th><th>Date</th><th>Reason</th></tr><tr><td>Depression screening</td><td><span class=\"nb\">04-Jun-2025</span></td><td>-</td></tr><tr><td>Assessment of health and social care needs</td><td><span class=\"nb\">04-Jun-2025</span></td><td>-</td></tr><tr><td>Assessment using Morse Fall Scale</td><td><span class=\"nb\">04-Jun-2025</span></td><td>-</td></tr><tr><td>Depression screening using Patient Health Questionnaire Two-Item score (procedure)</td><td><span class=\"nb\">04-Jun-2025</span></td><td>-</td></tr><tr><td>Assessment of anxiety</td><td><span class=\"nb\">22-May-2024</span></td><td>-</td></tr><tr><td>Screening for drug abuse</td><td><span class=\"nb\">22-May-2024</span></td><td>-</td></tr><tr><td>Screening for domestic abuse</td><td><span class=\"nb\">22-May-2024</span></td><td>-</td></tr><tr><td>Assessment of substance use</td><td><span class=\"nb\">22-May-2024</span></td><td>-</td></tr><tr><td>Assessment using AUDIT-C (Alcohol Use Disorders Identification Test - Consumption)</td><td><span class=\"nb\">08-May-2024</span></td><td>-</td></tr><tr><td>Medication reconciliation</td><td><span class=\"nb\">24-Apr-2024</span></td><td>-</td></tr><tr><td>Laparoscopic cholecystectomy</td><td><span class=\"nb\">07-Jul-2021</span></td><td>-</td></tr><tr><td>Intubation</td><td><span class=\"nb\">07-Jul-2021</span></td><td>-</td></tr><tr><td>Administration of anesthesia for procedure</td><td><span class=\"nb\">07-Jul-2021</span></td><td>-</td></tr><tr><td>Ultrasonography of abdomen</td><td><span class=\"nb\">07-Jul-2021</span></td><td>-</td></tr><tr><td>Electrocardiographic procedure</td><td><span class=\"nb\">06-Jul-2021</span></td><td>-</td></tr><tr><td>Pre-discharge assessment</td><td><span class=\"nb\">04-Mar-2017</span></td><td>-</td></tr><tr><td>Discharge from skilled nursing facility (procedure)</td><td><span class=\"nb\">04-Mar-2017</span></td><td>-</td></tr><tr><td>Professional / ancillary services care</td><td><span class=\"nb\">03-Mar-2017</span></td><td>-</td></tr><tr><td>Nursing care/supplementary surveillance</td><td><span class=\"nb\">03-Mar-2017</span></td><td>-</td></tr><tr><td>History AND physical examination</td><td><span class=\"nb\">02-Mar-2017</span></td><td>-</td></tr><tr><td>Initial patient assessment</td><td><span class=\"nb\">02-Mar-2017</span></td><td>-</td></tr><tr><td>Development of individualized plan of care</td><td><span class=\"nb\">02-Mar-2017</span></td><td>-</td></tr></table></div>"
            },
            "entry": [
              {
                "reference": "urn:uuid:e822fccf-3281-4e71-97bb-a1a3e54478c6"
              }
            ],
            "code": {
              "coding": [
                {
                  "system": "http://loinc.org",
                  "code": "47519-4",
                  "display": "History of Procedures Document"
                }
              ]
            },
            "title": "Procedure History list"
          },
          {
            "text": {
              "status": "generated",
              "div": "<div xmlns=\"http://www.w3.org/1999/xhtml\"><table class=\"hl7__ips\"><tr><th>Allergy/Intolerance</th><th>Onset Date</th><th>Status</th><th>Type</th><th>Reaction</th></tr><tr><td></td><td>?</td><td>active</td><td>?</td><td></td></tr></table></div>"
            },
            "entry": [
              {
                "reference": "urn:uuid:c0214603-2a9f-46cd-881d-5f9150a9963d"
              }
            ],
            "code": {
              "coding": [
                {
                  "system": "http://loinc.org",
                  "code": "48765-2",
                  "display": "Allergies and adverse reactions Document"
                }
              ]
            },
            "title": "Allergies and Intolerances"
          },
          {
            "text": {
              "status": "generated",
              "div": "<div xmlns=\"http://www.w3.org/1999/xhtml\"><table class=\"hl7__ips\"><tr><th>Active Planned Care / Goals</th><th>Start Date</th><th>Reason</th></tr><tr><td>Lifestyle education regarding hypertension</td><td><span class=\"nb\">05-Jul-2017</span></td><td>Essential hypertension (disorder)</td></tr><tr><td><ul><li>Patient will implement recommended lifestyle changes to help control blood pressure, including dietary modifications, increased physical activity, and sodium restriction.</li></ul></td><td></td><td></td></tr><tr><td>Diabetes self management plan</td><td><span class=\"nb\">08-Dec-1971</span></td><td>Prediabetes</td></tr><tr><td><ul><li>Patient will implement and maintain a diabetes self-management plan to address prediabetes and reduce risk of progression to diabetes.</li><li>Achieve and maintain hemoglobin A1c within target range to reduce risk of diabetes complications.</li><li>Maintain fasting blood glucose within recommended range for prediabetes management.</li><li>Achieve and maintain weight loss of at least 5% of baseline body weight to reduce diabetes risk.</li><li>Maintain blood pressure within recommended range for patients with prediabetes and comorbidities.</li></ul></td><td></td><td></td></tr><tr><th>Immunization Recommendation</th><th>Due Date</th><th>Reason</th></tr><tr><td>Vaccine product containing only Influenza virus antigen (medicinal product)</td><td><span class=\"nb\">01-Oct-2025</span></td><td>Annual seasonal influenza vaccination</td></tr></table></div>"
            },
            "title": "Care Plan",
            "code": {
              "coding": [
                {
                  "code": "18776-5",
                  "system": "http://loinc.org",
                  "display": "Plan of care note"
                }
              ]
            }
          },
          {
            "text": {
              "status": "generated",
              "div": "<div xmlns=\"http://www.w3.org/1999/xhtml\"><table class=\"hl7__ips\"><tr><th>Vital Signs</th><th>2025-07-15</th><th>2025-06-03</th></tr><tr><td>Body Height</td><td>165.5 cm</td><td>165.5 cm</td></tr><tr><td>Pain severity - 0-10 verbal numeric rating [Score] - Reported</td><td>2 {score}</td><td>1 {score}</td></tr><tr><td>Body Weight</td><td>76.8 kg</td><td>76.8 kg</td></tr><tr><td>Body mass index (BMI) [Ratio]</td><td>28 kg/m2</td><td>28 kg/m2</td></tr><tr><td>Diastolic Blood Pressure</td><td>71 mm[Hg]</td><td>68 mm[Hg]</td></tr><tr><td>Systolic Blood Pressure</td><td>111 mm[Hg]</td><td>110 mm[Hg]</td></tr><tr><td>Heart rate</td><td>72 /min</td><td>62 /min</td></tr><tr><td>Respiratory rate</td><td>14 /min</td><td>15 /min</td></tr></table></div>"
            },
            "entry": [
              {
                "reference": "urn:uuid:ff174eb3-ed6a-45cb-a33c-164f0b05b9d7"
              }
            ],
            "code": {
              "coding": [
                {
                  "system": "http://loinc.org",
                  "code": "8716-3",
                  "display": "Vital signs note"
                }
              ]
            },
            "title": "Vital Signs"
          },
          {
            "text": {
              "status": "generated",
              "div": "<div xmlns=\"http://www.w3.org/1999/xhtml\"><table class=\"hl7__ips\"><table class=\"hl7__ips\"><thead><tr><th>Recent Lab Observations</th><th>16-JUL-2025</th><th>Reference&#xA0;Range</th><th>Unit</th></tr></thead><tbody><tr><td>Glucose [Mass/volume] in Serum or Plasma</td><td>98.4</td><td>70 - 140</td><td>mg/dL</td></tr><tr><td>Urea nitrogen [Mass/volume] in Serum or Plasma</td><td>13.8</td><td>7 - 25</td><td>mg/dL</td></tr><tr><td>Creatinine [Mass/volume] in Serum or Plasma</td><td><strong>2.1 H</strong></td><td>0.6 - 1.3</td><td>mg/dL</td></tr><tr><td>Calcium [Mass/volume] in Serum or Plasma</td><td>9.3</td><td>8.5 - 10.4</td><td>mg/dL</td></tr><tr><td>Sodium [Moles/volume] in Serum or Plasma</td><td>142.5</td><td>135 - 145</td><td>mmol/L</td></tr><tr><td>Potassium [Moles/volume] in Serum or Plasma</td><td>5.0</td><td>3.5 - 5.1</td><td>mmol/L</td></tr><tr><td>Chloride [Moles/volume] in Serum or Plasma</td><td>101.7</td><td>98 - 110</td><td>mmol/L</td></tr><tr><td>Carbon dioxide, total [Moles/volume] in Serum or Plasma</td><td><strong>20.9 L</strong></td><td>22 - 29</td><td>mmol/L</td></tr><tr><td>Appearance of Urine</td><td>Cloudy urine</td><td></td><td></td></tr><tr><td>Odor of Urine</td><td>Urine smell ammoniacal</td><td></td><td></td></tr><tr><td>Clarity of Urine</td><td>Translucent</td><td></td><td></td></tr><tr><td>Color of Urine</td><td>Brown color</td><td></td><td></td></tr><tr><td>Glucose [Mass/volume] in Urine by Test strip</td><td><strong>1.5 H</strong></td><td>0.8 - 0</td><td>mg/dL</td></tr><tr><td>Glucose [Presence] in Urine by Test strip</td><td>++</td><td></td><td></td></tr><tr><td>Bilirubin.total [Mass/volume] in Urine by Test strip</td><td>0.3</td><td>0 - 1</td><td>mg/dL</td></tr><tr><td>Bilirubin.total [Presence] in Urine by Test strip</td><td>Finding of bilirubin in urine</td><td></td><td></td></tr><tr><td>Ketones [Mass/volume] in Urine by Test strip</td><td><strong>15.0 H</strong></td><td>0 - 4</td><td>mg/dL</td></tr><tr><td>Ketones [Presence] in Urine by Test strip</td><td>Urine ketone test = +</td><td></td><td></td></tr><tr><td>Specific gravity of Urine by Test strip</td><td><strong>1.0 L</strong></td><td>1.01 - 1.03</td><td>{nominal}</td></tr><tr><td>pH of Urine by Test strip</td><td>5.4</td><td>4.5 - 7.5</td><td>pH</td></tr><tr><td>Protein [Mass/volume] in Urine by Test strip</td><td><strong>313.1 H</strong></td><td>0 - 149</td><td>mg/dL</td></tr><tr><td>Protein [Presence] in Urine by Test strip</td><td>Urine protein test = ++</td><td></td><td></td></tr><tr><td>Nitrite [Presence] in Urine by Test strip</td><td>Urine nitrite negative</td><td></td><td></td></tr><tr><td>Hemoglobin [Presence] in Urine by Test strip</td><td>Urine blood test = negative</td><td></td><td></td></tr><tr><td>Leukocyte esterase [Presence] in Urine by Test strip</td><td>Urine leukocyte test negative</td><td></td><td></td></tr><tr><td>Hemoglobin A1c/Hemoglobin.total in Blood</td><td><strong>2.5 L</strong></td><td>3.9 - 5.7</td><td>%</td></tr><tr><td>Glucose [Mass/volume] in Blood</td><td>98.4</td><td>70 - 140</td><td>mg/dL</td></tr><tr><td>Urea nitrogen [Mass/volume] in Blood</td><td>13.8</td><td>7 - 25</td><td>mg/dL</td></tr><tr><td>Creatinine [Mass/volume] in Blood</td><td>1.1</td><td>0.6 - 1.3</td><td>mg/dL</td></tr><tr><td>Calcium [Mass/volume] in Blood</td><td>9.3</td><td>8.5 - 10.4</td><td>mg/dL</td></tr><tr><td>Sodium [Moles/volume] in Blood</td><td>142.5</td><td>135 - 145</td><td>mmol/L</td></tr><tr><td>Potassium [Moles/volume] in Blood</td><td>5.0</td><td>3.5 - 5.1</td><td>mmol/L</td></tr><tr><td>Chloride [Moles/volume] in Blood</td><td>101.7</td><td>98 - 114</td><td>mmol/L</td></tr><tr><td>Carbon dioxide, total [Moles/volume] in Blood</td><td><strong>20.9 L</strong></td><td>22 - 29</td><td>mmol/L</td></tr><tr><td>Cholesterol [Mass/volume] in Serum or Plasma</td><td>135.2</td><td>100 - 200</td><td>mg/dL</td></tr><tr><td>Triglyceride [Mass/volume] in Serum or Plasma</td><td>128.7</td><td>35 - 175</td><td>mg/dL</td></tr><tr><td>Cholesterol in LDL [Mass/volume] in Serum or Plasma by Direct assay</td><td>64.8</td><td>0 - 130</td><td>mg/dL</td></tr><tr><td>Cholesterol in HDL [Mass/volume] in Serum or Plasma</td><td><strong>44.6 L</strong></td><td>50 - 100</td><td>mg/dL</td></tr><tr><td>Microalbumin/Creatinine [Mass Ratio] in Urine</td><td>21.3</td><td>0 - 30</td><td>mg/g</td></tr></tbody></table></table></div>"
            },
            "title": "Relevant diagnostic tests/laboratory data",
            "code": {
              "coding": [
                {
                  "code": "30954-2",
                  "system": "http://loinc.org",
                  "display": "Relevant diagnostic tests/laboratory data note"
                }
              ]
            }
          },
          {
            "text": {
              "status": "generated",
              "div": "<div xmlns=\"http://www.w3.org/1999/xhtml\"><table class=\"hl7__ips\"><tr><th>Device</th><th>Date (since)</th></tr><tr><td>Manual wheelchair (physical object)</td><td><span class=\"nb\">17-Feb-1979</span></td></tr><tr><td>Wheelchair accessory (physical object)</td><td><span class=\"nb\">17-Feb-1979</span></td></tr><tr><td>Blood glucose meter (physical object)</td><td><span class=\"nb\">07-Dec-1971</span></td></tr></table></div>"
            },
            "entry": [
              {
                "reference": "urn:uuid:62f9fbe0-9f31-4471-8e23-80378a420a2a"
              }
            ],
            "code": {
              "coding": [
                {
                  "system": "http://loinc.org",
                  "code": "46264-8",
                  "display": "History of medical device use"
                }
              ]
            },
            "title": "Device Use"
          }
        ],
        "title": "European Patient Summary",
        "status": "final",
        "subject": {
          "reference": "urn:uuid:7d418f0c-5a3a-47eb-90e6-b509fbea37c0",
          "display": "Dorota Juśkiewicz"
        },
        "custodian": {
          "reference": "urn:uuid:c55a7c3c-2d3d-4c7a-a8fc-5dc6ac350a13"
        },
        "date": "2025-07-16",
        "confidentiality": "N"
      }
    },
    {
      "fullUrl": "urn:uuid:7d418f0c-5a3a-47eb-90e6-b509fbea37c0",
      "resource": {
        "resourceType": "Patient",
        "id": "7d418f0c-5a3a-47eb-90e6-b509fbea37c0",
        "meta": {
          "security": [
            {
              "system": "http://terminology.hl7.org/CodeSystem/v3-ActReason",
              "code": "HTEST"
            },
            {
              "system": "http://terminology.hl7.org/CodeSystem/v3-ActReason",
              "code": "TRAIN"
            }
          ],
          "tag": [
            {
              "system": "https://synderai.net/fhir/CodeSystem/tags",
              "code": "synthetic",
              "display": "SYNDERAI Synthetic data"
            }
          ],
          "profile": [
            "http://hl7.eu/fhir/eps/StructureDefinition/patient-eu-eps"
          ]
        },
        "identifier": [
          {
            "type": {
              "coding": [
                {
                  "code": "PT",
                  "system": "http://terminology.hl7.org/CodeSystem/v2-0203"
                }
              ]
            },
            "system": "http://ec.europa.eu/identifier/eci",
            "value": "7564-960387-7"
          },
          {
            "type": {
              "coding": [
                {
                  "code": "MR",
                  "system": "http://terminology.hl7.org/CodeSystem/v2-0203"
                }
              ]
            },
            "system": "http://local.setting.eu/identifier",
            "value": "35f87ca6-b86e-bda8-bb27-eac184a39274"
          }
        ],
        "name": [
          {
            "given": [
              "Dorota"
            ],
            "family": "Juśkiewicz",
            "text": "Dorota Juśkiewicz"
          }
        ],
        "address": [
          {
            "line": [
              "ul. Piwna 992"
            ],
            "use": "home",
            "type": "physical",
            "postalCode": "63-700",
            "city": "Krotoszyn",
            "country": "Poland"
          }
        ],
        "telecom": [
          {
            "system": "phone",
            "value": "+48 786 629 674"
          }
        ],
        "extension": [
          {
            "url": "http://hl7.org/fhir/StructureDefinition/patient-nationality",
            "valueCodeableConcept": {
              "coding": [
                {
                  "code": "PL",
                  "system": "http://hl7.org/fhir/ValueSet/country"
                }
              ]
            }
          }
        ],
        "text": {
          "status": "generated",
          "div": "<div xmlns=\"http://www.w3.org/1999/xhtml\"><table class=\"hl7__ips\"><tr><td>Dorota Juśkiewicz</td><td>female</td><td>19-Oct-1944</td></tr></table></div>"
        },
        "gender": "female",
        "birthDate": "1944-10-19"
      }
    },
    {
      "fullUrl": "urn:uuid:03667e88-b09c-4f07-b206-d89d51355689",
      "resource": {
        "resourceType": "PractitionerRole",
        "id": "03667e88-b09c-4f07-b206-d89d51355689",
        "meta": {
          "profile": [
            "http://hl7.eu/fhir/base/StructureDefinition/practitionerRole-eu"
          ]
        },
        "text": {
          "status": "generated",
          "div": "<div xmlns=\"http://www.w3.org/1999/xhtml\"><table class=\"hl7__ips\">Provider Role Id 03667e88-b09c-4f07-b206-d89d51355689</table></div>"
        },
        "practitioner": {
          "reference": "urn:uuid:305a131a-fa8e-4a21-95fc-cb81fd4e7838"
        },
        "organization": {
          "reference": "urn:uuid:c55a7c3c-2d3d-4c7a-a8fc-5dc6ac350a13"
        }
      }
    },
    {
      "fullUrl": "urn:uuid:c55a7c3c-2d3d-4c7a-a8fc-5dc6ac350a13",
      "resource": {
        "resourceType": "Organization",
        "id": "c55a7c3c-2d3d-4c7a-a8fc-5dc6ac350a13",
        "meta": {
          "profile": [
            "http://hl7.eu/fhir/base/StructureDefinition/organization-eu"
          ]
        },
        "identifier": [
          {
            "assigner": {
              "display": "HL7 Europe"
            },
            "system": "urn:oid:2.16.840.1.113883.2.51.999",
            "value": "74065a34-a0e5-4f45-8639-ec1c6166a100"
          }
        ],
        "address": [
          {
            "city": "Krotoszyn",
            "postalCode": "63-700",
            "country": "Poland"
          }
        ],
        "text": {
          "status": "generated",
          "div": "<div xmlns=\"http://www.w3.org/1999/xhtml\"><table class=\"hl7__ips\">Szpital Powiatowy im. Marcela Nenckiego</table></div>"
        },
        "name": "Szpital Powiatowy im. Marcela Nenckiego"
      }
    },
    {
      "fullUrl": "urn:uuid:305a131a-fa8e-4a21-95fc-cb81fd4e7838",
      "resource": {
        "resourceType": "Practitioner",
        "id": "305a131a-fa8e-4a21-95fc-cb81fd4e7838",
        "meta": {
          "profile": [
            "http://hl7.eu/fhir/base/StructureDefinition/practitioner-eu"
          ]
        },
        "name": [
          {
            "prefix": [
              "Dr."
            ],
            "given": [
              "Hel"
            ],
            "family": "Ping"
          }
        ],
        "text": {
          "status": "generated",
          "div": "<div xmlns=\"http://www.w3.org/1999/xhtml\"><table class=\"hl7__ips\">Dr. Hel Ping</table></div>"
        }
      }
    },
    {
      "fullUrl": "urn:uuid:493c0fc8-4a1b-4045-a5a5-d9a9674d1a04",
      "resource": {
        "resourceType": "Condition",
        "id": "493c0fc8-4a1b-4045-a5a5-d9a9674d1a04",
        "meta": {
          "profile": [
            "http://hl7.org/fhir/uv/ips/StructureDefinition/Condition-uv-ips"
          ]
        },
        "category": [
          {
            "coding": [
              {
                "code": "problem-list-item",
                "system": "http://terminology.hl7.org/CodeSystem/condition-category",
                "display": "Problem List Item"
              }
            ]
          }
        ],
        "code": {
          "coding": [
            {
              "code": "64859006",
              "system": "http://snomed.info/sct",
              "display": "Osteoporosis (disorder)"
            }
          ],
          "text": "Osteoporosis"
        },
        "text": {
          "status": "generated",
          "div": "<div xmlns=\"http://www.w3.org/1999/xhtml\"><table class=\"hl7__ips\"><tr><td>Osteoporosis</td><td><span class=\"nb\">24-Feb-2021</span></td><td>active</td></tr></table></div>"
        },
        "onsetDateTime": "2021-02-24",
        "subject": {
          "reference": "urn:uuid:7d418f0c-5a3a-47eb-90e6-b509fbea37c0",
          "display": "Dorota Juśkiewicz"
        },
        "asserter": {
          "reference": "urn:uuid:03667e88-b09c-4f07-b206-d89d51355689",
          "display": "Szpital Powiatowy im. Marcela Nenckiego"
        }
      }
    },
    {
      "fullUrl": "urn:uuid:86b68792-dbb4-495c-9406-baee3b3efa89",
      "resource": {
        "resourceType": "Condition",
        "id": "86b68792-dbb4-495c-9406-baee3b3efa89",
        "meta": {
          "profile": [
            "http://hl7.org/fhir/uv/ips/StructureDefinition/Condition-uv-ips"
          ]
        },
        "category": [
          {
            "coding": [
              {
                "code": "problem-list-item",
                "system": "http://terminology.hl7.org/CodeSystem/condition-category",
                "display": "Problem List Item"
              }
            ]
          }
        ],
        "code": {
          "coding": [
            {
              "code": "431856006",
              "system": "http://snomed.info/sct",
              "display": "Chronic kidney disease stage 2 (disorder)"
            }
          ],
          "text": "Chronic kidney disease stage 2"
        },
        "text": {
          "status": "generated",
          "div": "<div xmlns=\"http://www.w3.org/1999/xhtml\"><table class=\"hl7__ips\"><tr><td>Chronic kidney disease stage 2</td><td><span class=\"nb\">05-Sep-2018</span></td><td>active</td></tr></table></div>"
        },
        "onsetDateTime": "2018-09-05",
        "subject": {
          "reference": "urn:uuid:7d418f0c-5a3a-47eb-90e6-b509fbea37c0",
          "display": "Dorota Juśkiewicz"
        },
        "asserter": {
          "reference": "urn:uuid:03667e88-b09c-4f07-b206-d89d51355689",
          "display": "Szpital Powiatowy im. Marcela Nenckiego"
        }
      }
    },
    {
      "fullUrl": "urn:uuid:eb7ed7b8-b07a-48c6-8937-052b5b82a699",
      "resource": {
        "resourceType": "Condition",
        "id": "eb7ed7b8-b07a-48c6-8937-052b5b82a699",
        "meta": {
          "profile": [
            "http://hl7.org/fhir/uv/ips/StructureDefinition/Condition-uv-ips"
          ]
        },
        "category": [
          {
            "coding": [
              {
                "code": "problem-list-item",
                "system": "http://terminology.hl7.org/CodeSystem/condition-category",
                "display": "Problem List Item"
              }
            ]
          }
        ],
        "code": {
          "coding": [
            {
              "code": "90781000119102",
              "system": "http://snomed.info/sct",
              "display": "Microalbuminuria due to type 2 diabetes mellitus (disorder)"
            }
          ],
          "text": "Microalbuminuria due to type 2 diabetes mellitus"
        },
        "text": {
          "status": "generated",
          "div": "<div xmlns=\"http://www.w3.org/1999/xhtml\"><table class=\"hl7__ips\"><tr><td>Microalbuminuria due to type 2 diabetes mellitus</td><td><span class=\"nb\">05-Sep-2018</span></td><td>active</td></tr></table></div>"
        },
        "onsetDateTime": "2018-09-05",
        "subject": {
          "reference": "urn:uuid:7d418f0c-5a3a-47eb-90e6-b509fbea37c0",
          "display": "Dorota Juśkiewicz"
        },
        "asserter": {
          "reference": "urn:uuid:03667e88-b09c-4f07-b206-d89d51355689",
          "display": "Szpital Powiatowy im. Marcela Nenckiego"
        }
      }
    },
    {
      "fullUrl": "urn:uuid:043ea65b-7074-4a5e-bf72-1bd6bbc43442",
      "resource": {
        "resourceType": "Condition",
        "id": "043ea65b-7074-4a5e-bf72-1bd6bbc43442",
        "meta": {
          "profile": [
            "http://hl7.org/fhir/uv/ips/StructureDefinition/Condition-uv-ips"
          ]
        },
        "category": [
          {
            "coding": [
              {
                "code": "problem-list-item",
                "system": "http://terminology.hl7.org/CodeSystem/condition-category",
                "display": "Problem List Item"
              }
            ]
          }
        ],
        "code": {
          "coding": [
            {
              "code": "59621000",
              "system": "http://snomed.info/sct",
              "display": "Essential hypertension (disorder)"
            }
          ],
          "text": "Essential hypertension"
        },
        "text": {
          "status": "generated",
          "div": "<div xmlns=\"http://www.w3.org/1999/xhtml\"><table class=\"hl7__ips\"><tr><td>Essential hypertension</td><td><span class=\"nb\">05-Jul-2017</span></td><td>active</td></tr></table></div>"
        },
        "onsetDateTime": "2017-07-05",
        "subject": {
          "reference": "urn:uuid:7d418f0c-5a3a-47eb-90e6-b509fbea37c0",
          "display": "Dorota Juśkiewicz"
        },
        "asserter": {
          "reference": "urn:uuid:03667e88-b09c-4f07-b206-d89d51355689",
          "display": "Szpital Powiatowy im. Marcela Nenckiego"
        }
      }
    },
    {
      "fullUrl": "urn:uuid:cfaaafc2-1101-4d63-b4c2-c691d2ca43ea",
      "resource": {
        "resourceType": "Condition",
        "id": "cfaaafc2-1101-4d63-b4c2-c691d2ca43ea",
        "meta": {
          "profile": [
            "http://hl7.org/fhir/uv/ips/StructureDefinition/Condition-uv-ips"
          ]
        },
        "category": [
          {
            "coding": [
              {
                "code": "problem-list-item",
                "system": "http://terminology.hl7.org/CodeSystem/condition-category",
                "display": "Problem List Item"
              }
            ]
          }
        ],
        "code": {
          "coding": [
            {
              "code": "80394007",
              "system": "http://snomed.info/sct",
              "display": "Hyperglycemia (disorder)"
            }
          ],
          "text": "Hyperglycemia"
        },
        "text": {
          "status": "generated",
          "div": "<div xmlns=\"http://www.w3.org/1999/xhtml\"><table class=\"hl7__ips\"><tr><td>Hyperglycemia</td><td><span class=\"nb\">05-Jul-2017</span></td><td>active</td></tr></table></div>"
        },
        "onsetDateTime": "2017-07-05",
        "subject": {
          "reference": "urn:uuid:7d418f0c-5a3a-47eb-90e6-b509fbea37c0",
          "display": "Dorota Juśkiewicz"
        },
        "asserter": {
          "reference": "urn:uuid:03667e88-b09c-4f07-b206-d89d51355689",
          "display": "Szpital Powiatowy im. Marcela Nenckiego"
        }
      }
    },
    {
      "fullUrl": "urn:uuid:89c0cc8d-6480-4162-9a1b-45807103a64c",
      "resource": {
        "resourceType": "Condition",
        "id": "89c0cc8d-6480-4162-9a1b-45807103a64c",
        "meta": {
          "profile": [
            "http://hl7.org/fhir/uv/ips/StructureDefinition/Condition-uv-ips"
          ]
        },
        "category": [
          {
            "coding": [
              {
                "code": "problem-list-item",
                "system": "http://terminology.hl7.org/CodeSystem/condition-category",
                "display": "Problem List Item"
              }
            ]
          }
        ],
        "code": {
          "coding": [
            {
              "code": "127013003",
              "system": "http://snomed.info/sct",
              "display": "Disorder of kidney due to diabetes mellitus (disorder)"
            }
          ],
          "text": "Disorder of kidney due to diabetes mellitus"
        },
        "text": {
          "status": "generated",
          "div": "<div xmlns=\"http://www.w3.org/1999/xhtml\"><table class=\"hl7__ips\"><tr><td>Disorder of kidney due to diabetes mellitus</td><td><span class=\"nb\">05-Jul-2017</span></td><td>active</td></tr></table></div>"
        },
        "onsetDateTime": "2017-07-05",
        "subject": {
          "reference": "urn:uuid:7d418f0c-5a3a-47eb-90e6-b509fbea37c0",
          "display": "Dorota Juśkiewicz"
        },
        "asserter": {
          "reference": "urn:uuid:03667e88-b09c-4f07-b206-d89d51355689",
          "display": "Szpital Powiatowy im. Marcela Nenckiego"
        }
      }
    },
    {
      "fullUrl": "urn:uuid:97c73fc6-bf87-4e39-a968-39eacff2ec96",
      "resource": {
        "resourceType": "Condition",
        "id": "97c73fc6-bf87-4e39-a968-39eacff2ec96",
        "meta": {
          "profile": [
            "http://hl7.org/fhir/uv/ips/StructureDefinition/Condition-uv-ips"
          ]
        },
        "category": [
          {
            "coding": [
              {
                "code": "problem-list-item",
                "system": "http://terminology.hl7.org/CodeSystem/condition-category",
                "display": "Problem List Item"
              }
            ]
          }
        ],
        "code": {
          "coding": [
            {
              "code": "237602007",
              "system": "http://snomed.info/sct",
              "display": "Metabolic syndrome X (disorder)"
            }
          ],
          "text": "Metabolic syndrome X"
        },
        "text": {
          "status": "generated",
          "div": "<div xmlns=\"http://www.w3.org/1999/xhtml\"><table class=\"hl7__ips\"><tr><td>Metabolic syndrome X</td><td><span class=\"nb\">05-Jul-2017</span></td><td>active</td></tr></table></div>"
        },
        "onsetDateTime": "2017-07-05",
        "subject": {
          "reference": "urn:uuid:7d418f0c-5a3a-47eb-90e6-b509fbea37c0",
          "display": "Dorota Juśkiewicz"
        },
        "asserter": {
          "reference": "urn:uuid:03667e88-b09c-4f07-b206-d89d51355689",
          "display": "Szpital Powiatowy im. Marcela Nenckiego"
        }
      }
    },
    {
      "fullUrl": "urn:uuid:b347d303-243c-4f9a-8f2a-65f52d0d9b12",
      "resource": {
        "resourceType": "Condition",
        "id": "b347d303-243c-4f9a-8f2a-65f52d0d9b12",
        "meta": {
          "profile": [
            "http://hl7.org/fhir/uv/ips/StructureDefinition/Condition-uv-ips"
          ]
        },
        "category": [
          {
            "coding": [
              {
                "code": "problem-list-item",
                "system": "http://terminology.hl7.org/CodeSystem/condition-category",
                "display": "Problem List Item"
              }
            ]
          }
        ],
        "code": {
          "coding": [
            {
              "code": "302870006",
              "system": "http://snomed.info/sct",
              "display": "Hypertriglyceridemia (disorder)"
            }
          ],
          "text": "Hypertriglyceridemia"
        },
        "text": {
          "status": "generated",
          "div": "<div xmlns=\"http://www.w3.org/1999/xhtml\"><table class=\"hl7__ips\"><tr><td>Hypertriglyceridemia</td><td><span class=\"nb\">05-Jul-2017</span></td><td>active</td></tr></table></div>"
        },
        "onsetDateTime": "2017-07-05",
        "subject": {
          "reference": "urn:uuid:7d418f0c-5a3a-47eb-90e6-b509fbea37c0",
          "display": "Dorota Juśkiewicz"
        },
        "asserter": {
          "reference": "urn:uuid:03667e88-b09c-4f07-b206-d89d51355689",
          "display": "Szpital Powiatowy im. Marcela Nenckiego"
        }
      }
    },
    {
      "fullUrl": "urn:uuid:b30247ee-e571-4d67-9da2-471b91d30458",
      "resource": {
        "resourceType": "Condition",
        "id": "b30247ee-e571-4d67-9da2-471b91d30458",
        "meta": {
          "profile": [
            "http://hl7.org/fhir/uv/ips/StructureDefinition/Condition-uv-ips"
          ]
        },
        "category": [
          {
            "coding": [
              {
                "code": "problem-list-item",
                "system": "http://terminology.hl7.org/CodeSystem/condition-category",
                "display": "Problem List Item"
              }
            ]
          }
        ],
        "code": {
          "coding": [
            {
              "code": "414545008",
              "system": "http://snomed.info/sct",
              "display": "Ischemic heart disease (disorder)"
            }
          ],
          "text": "Ischemic heart disease"
        },
        "text": {
          "status": "generated",
          "div": "<div xmlns=\"http://www.w3.org/1999/xhtml\"><table class=\"hl7__ips\"><tr><td>Ischemic heart disease</td><td><span class=\"nb\">05-Jul-2017</span></td><td>active</td></tr></table></div>"
        },
        "onsetDateTime": "2017-07-05",
        "subject": {
          "reference": "urn:uuid:7d418f0c-5a3a-47eb-90e6-b509fbea37c0",
          "display": "Dorota Juśkiewicz"
        },
        "asserter": {
          "reference": "urn:uuid:03667e88-b09c-4f07-b206-d89d51355689",
          "display": "Szpital Powiatowy im. Marcela Nenckiego"
        }
      }
    },
    {
      "fullUrl": "urn:uuid:efcb7ecb-4bed-416e-ab3c-cf91aea86fac",
      "resource": {
        "resourceType": "Condition",
        "id": "efcb7ecb-4bed-416e-ab3c-cf91aea86fac",
        "meta": {
          "profile": [
            "http://hl7.org/fhir/uv/ips/StructureDefinition/Condition-uv-ips"
          ]
        },
        "category": [
          {
            "coding": [
              {
                "code": "problem-list-item",
                "system": "http://terminology.hl7.org/CodeSystem/condition-category",
                "display": "Problem List Item"
              }
            ]
          }
        ],
        "code": {
          "coding": [
            {
              "code": "431855005",
              "system": "http://snomed.info/sct",
              "display": "Chronic kidney disease stage 1 (disorder)"
            }
          ],
          "text": "Chronic kidney disease stage 1"
        },
        "text": {
          "status": "generated",
          "div": "<div xmlns=\"http://www.w3.org/1999/xhtml\"><table class=\"hl7__ips\"><tr><td>Chronic kidney disease stage 1</td><td><span class=\"nb\">05-Jul-2017</span></td><td>active</td></tr></table></div>"
        },
        "onsetDateTime": "2017-07-05",
        "subject": {
          "reference": "urn:uuid:7d418f0c-5a3a-47eb-90e6-b509fbea37c0",
          "display": "Dorota Juśkiewicz"
        },
        "asserter": {
          "reference": "urn:uuid:03667e88-b09c-4f07-b206-d89d51355689",
          "display": "Szpital Powiatowy im. Marcela Nenckiego"
        }
      }
    },
    {
      "fullUrl": "urn:uuid:85a17369-8292-4770-a1c0-3af99cd72140",
      "resource": {
        "resourceType": "Condition",
        "id": "85a17369-8292-4770-a1c0-3af99cd72140",
        "meta": {
          "profile": [
            "http://hl7.org/fhir/uv/ips/StructureDefinition/Condition-uv-ips"
          ]
        },
        "category": [
          {
            "coding": [
              {
                "code": "problem-list-item",
                "system": "http://terminology.hl7.org/CodeSystem/condition-category",
                "display": "Problem List Item"
              }
            ]
          }
        ],
        "code": {
          "coding": [
            {
              "code": "368581000119106",
              "system": "http://snomed.info/sct",
              "display": "Neuropathy due to type 2 diabetes mellitus (disorder)"
            }
          ],
          "text": "Neuropathy due to type 2 diabetes mellitus"
        },
        "text": {
          "status": "generated",
          "div": "<div xmlns=\"http://www.w3.org/1999/xhtml\"><table class=\"hl7__ips\"><tr><td>Neuropathy due to type 2 diabetes mellitus</td><td><span class=\"nb\">05-Jul-2017</span></td><td>active</td></tr></table></div>"
        },
        "onsetDateTime": "2017-07-05",
        "subject": {
          "reference": "urn:uuid:7d418f0c-5a3a-47eb-90e6-b509fbea37c0",
          "display": "Dorota Juśkiewicz"
        },
        "asserter": {
          "reference": "urn:uuid:03667e88-b09c-4f07-b206-d89d51355689",
          "display": "Szpital Powiatowy im. Marcela Nenckiego"
        }
      }
    },
    {
      "fullUrl": "urn:uuid:757a92dc-a2d2-4b51-b1df-217492ba7fb9",
      "resource": {
        "resourceType": "Condition",
        "id": "757a92dc-a2d2-4b51-b1df-217492ba7fb9",
        "meta": {
          "profile": [
            "http://hl7.org/fhir/uv/ips/StructureDefinition/Condition-uv-ips"
          ]
        },
        "category": [
          {
            "coding": [
              {
                "code": "problem-list-item",
                "system": "http://terminology.hl7.org/CodeSystem/condition-category",
                "display": "Problem List Item"
              }
            ]
          }
        ],
        "code": {
          "coding": [
            {
              "code": "44054006",
              "system": "http://snomed.info/sct",
              "display": "Diabetes mellitus type 2 (disorder)"
            }
          ],
          "text": "Type 2 diabetes mellitus"
        },
        "text": {
          "status": "generated",
          "div": "<div xmlns=\"http://www.w3.org/1999/xhtml\"><table class=\"hl7__ips\"><tr><td>Type 2 diabetes mellitus</td><td><span class=\"nb\">29-Jun-2016</span></td><td>active</td></tr></table></div>"
        },
        "onsetDateTime": "2016-06-29",
        "subject": {
          "reference": "urn:uuid:7d418f0c-5a3a-47eb-90e6-b509fbea37c0",
          "display": "Dorota Juśkiewicz"
        },
        "asserter": {
          "reference": "urn:uuid:03667e88-b09c-4f07-b206-d89d51355689",
          "display": "Szpital Powiatowy im. Marcela Nenckiego"
        }
      }
    },
    {
      "fullUrl": "urn:uuid:d5dd0943-0c61-41b1-b70c-5fab89fe92f2",
      "resource": {
        "resourceType": "Condition",
        "id": "d5dd0943-0c61-41b1-b70c-5fab89fe92f2",
        "meta": {
          "profile": [
            "http://hl7.org/fhir/uv/ips/StructureDefinition/Condition-uv-ips"
          ]
        },
        "category": [
          {
            "coding": [
              {
                "code": "problem-list-item",
                "system": "http://terminology.hl7.org/CodeSystem/condition-category",
                "display": "Problem List Item"
              }
            ]
          }
        ],
        "code": {
          "coding": [
            {
              "code": "239872002",
              "system": "http://snomed.info/sct",
              "display": "Osteoarthritis of hip (disorder)"
            }
          ],
          "text": "Osteoarthritis of hip"
        },
        "text": {
          "status": "generated",
          "div": "<div xmlns=\"http://www.w3.org/1999/xhtml\"><table class=\"hl7__ips\"><tr><td>Osteoarthritis of hip</td><td><span class=\"nb\">18-Feb-1979</span></td><td>active</td></tr></table></div>"
        },
        "onsetDateTime": "1979-02-18",
        "subject": {
          "reference": "urn:uuid:7d418f0c-5a3a-47eb-90e6-b509fbea37c0",
          "display": "Dorota Juśkiewicz"
        },
        "asserter": {
          "reference": "urn:uuid:03667e88-b09c-4f07-b206-d89d51355689",
          "display": "Szpital Powiatowy im. Marcela Nenckiego"
        }
      }
    },
    {
      "fullUrl": "urn:uuid:2fc80845-b148-4ad2-9825-b5b92206b84d",
      "resource": {
        "resourceType": "Condition",
        "id": "2fc80845-b148-4ad2-9825-b5b92206b84d",
        "meta": {
          "profile": [
            "http://hl7.org/fhir/uv/ips/StructureDefinition/Condition-uv-ips"
          ]
        },
        "category": [
          {
            "coding": [
              {
                "code": "problem-list-item",
                "system": "http://terminology.hl7.org/CodeSystem/condition-category",
                "display": "Problem List Item"
              }
            ]
          }
        ],
        "code": {
          "coding": [
            {
              "code": "91302008",
              "system": "http://snomed.info/sct",
              "display": "Sepsis (disorder)"
            }
          ],
          "text": "Sepsis"
        },
        "text": {
          "status": "generated",
          "div": "<div xmlns=\"http://www.w3.org/1999/xhtml\"><table class=\"hl7__ips\"><tr><td>Sepsis</td><td><span class=\"nb\">07-Jun-1977</span></td><td>active</td></tr></table></div>"
        },
        "onsetDateTime": "1977-06-07",
        "subject": {
          "reference": "urn:uuid:7d418f0c-5a3a-47eb-90e6-b509fbea37c0",
          "display": "Dorota Juśkiewicz"
        },
        "asserter": {
          "reference": "urn:uuid:03667e88-b09c-4f07-b206-d89d51355689",
          "display": "Szpital Powiatowy im. Marcela Nenckiego"
        }
      }
    },
    {
      "fullUrl": "urn:uuid:e33f5113-ddf2-443d-a34e-cd3cfd6b9e24",
      "resource": {
        "resourceType": "Condition",
        "id": "e33f5113-ddf2-443d-a34e-cd3cfd6b9e24",
        "meta": {
          "profile": [
            "http://hl7.org/fhir/uv/ips/StructureDefinition/Condition-uv-ips"
          ]
        },
        "category": [
          {
            "coding": [
              {
                "code": "problem-list-item",
                "system": "http://terminology.hl7.org/CodeSystem/condition-category",
                "display": "Problem List Item"
              }
            ]
          }
        ],
        "code": {
          "coding": [
            {
              "code": "15777000",
              "system": "http://snomed.info/sct",
              "display": "Prediabetes (disorder)"
            }
          ],
          "text": "Prediabetes"
        },
        "text": {
          "status": "generated",
          "div": "<div xmlns=\"http://www.w3.org/1999/xhtml\"><table class=\"hl7__ips\"><tr><td>Prediabetes</td><td><span class=\"nb\">08-Dec-1971</span></td><td>active</td></tr></table></div>"
        },
        "onsetDateTime": "1971-12-08",
        "subject": {
          "reference": "urn:uuid:7d418f0c-5a3a-47eb-90e6-b509fbea37c0",
          "display": "Dorota Juśkiewicz"
        },
        "asserter": {
          "reference": "urn:uuid:03667e88-b09c-4f07-b206-d89d51355689",
          "display": "Szpital Powiatowy im. Marcela Nenckiego"
        }
      }
    },
    {
      "fullUrl": "urn:uuid:1bf7f016-abe6-4473-97c8-3c2fd8a886c1",
      "resource": {
        "resourceType": "Condition",
        "id": "1bf7f016-abe6-4473-97c8-3c2fd8a886c1",
        "meta": {
          "profile": [
            "http://hl7.org/fhir/uv/ips/StructureDefinition/Condition-uv-ips"
          ]
        },
        "category": [
          {
            "coding": [
              {
                "code": "problem-list-item",
                "system": "http://terminology.hl7.org/CodeSystem/condition-category",
                "display": "Problem List Item"
              }
            ]
          }
        ],
        "code": {
          "coding": [
            {
              "code": "444814009",
              "system": "http://snomed.info/sct",
              "display": "Viral sinusitis (disorder)"
            }
          ],
          "text": "Viral sinusitis"
        },
        "text": {
          "status": "generated",
          "div": "<div xmlns=\"http://www.w3.org/1999/xhtml\"><table class=\"hl7__ips\"><tr><td><span class=\"grayedout\">Viral sinusitis</span></td><td><span class=\"nb\">01-May-2024 - 20-May-2024</span></td><td><span class=\"grayedout\">inactive</span></td></tr></table></div>"
        },
        "onsetDateTime": "2024-05-01",
        "abatementDateTime": "2024-05-20",
        "subject": {
          "reference": "urn:uuid:7d418f0c-5a3a-47eb-90e6-b509fbea37c0",
          "display": "Dorota Juśkiewicz"
        },
        "asserter": {
          "reference": "urn:uuid:03667e88-b09c-4f07-b206-d89d51355689",
          "display": "Szpital Powiatowy im. Marcela Nenckiego"
        }
      }
    },
    {
      "fullUrl": "urn:uuid:132d4674-e2a2-4bb4-b99c-211ba3224d63",
      "resource": {
        "resourceType": "Condition",
        "id": "132d4674-e2a2-4bb4-b99c-211ba3224d63",
        "meta": {
          "profile": [
            "http://hl7.org/fhir/uv/ips/StructureDefinition/Condition-uv-ips"
          ]
        },
        "category": [
          {
            "coding": [
              {
                "code": "problem-list-item",
                "system": "http://terminology.hl7.org/CodeSystem/condition-category",
                "display": "Problem List Item"
              }
            ]
          }
        ],
        "code": {
          "coding": [
            {
              "code": "195662009",
              "system": "http://snomed.info/sct",
              "display": "Acute viral pharyngitis (disorder)"
            }
          ],
          "text": "Acute viral pharyngitis"
        },
        "text": {
          "status": "generated",
          "div": "<div xmlns=\"http://www.w3.org/1999/xhtml\"><table class=\"hl7__ips\"><tr><td><span class=\"grayedout\">Acute viral pharyngitis</span></td><td><span class=\"nb\">28-Dec-2021 - 08-Jan-2022</span></td><td><span class=\"grayedout\">inactive</span></td></tr></table></div>"
        },
        "onsetDateTime": "2021-12-28",
        "abatementDateTime": "2022-01-08",
        "subject": {
          "reference": "urn:uuid:7d418f0c-5a3a-47eb-90e6-b509fbea37c0",
          "display": "Dorota Juśkiewicz"
        },
        "asserter": {
          "reference": "urn:uuid:03667e88-b09c-4f07-b206-d89d51355689",
          "display": "Szpital Powiatowy im. Marcela Nenckiego"
        }
      }
    },
    {
      "fullUrl": "urn:uuid:b006d644-8034-48f0-9127-7b7833288ab6",
      "resource": {
        "resourceType": "Condition",
        "id": "b006d644-8034-48f0-9127-7b7833288ab6",
        "meta": {
          "profile": [
            "http://hl7.org/fhir/uv/ips/StructureDefinition/Condition-uv-ips"
          ]
        },
        "category": [
          {
            "coding": [
              {
                "code": "problem-list-item",
                "system": "http://terminology.hl7.org/CodeSystem/condition-category",
                "display": "Problem List Item"
              }
            ]
          }
        ],
        "code": {
          "coding": [
            {
              "code": "65275009",
              "system": "http://snomed.info/sct",
              "display": "Acute cholecystitis (disorder)"
            }
          ],
          "text": "Acute cholecystitis"
        },
        "text": {
          "status": "generated",
          "div": "<div xmlns=\"http://www.w3.org/1999/xhtml\"><table class=\"hl7__ips\"><tr><td><span class=\"grayedout\">Acute cholecystitis</span></td><td><span class=\"nb\">07-Jul-2021 - 07-Jul-2021</span></td><td><span class=\"grayedout\">inactive</span></td></tr></table></div>"
        },
        "onsetDateTime": "2021-07-07",
        "abatementDateTime": "2021-07-07",
        "subject": {
          "reference": "urn:uuid:7d418f0c-5a3a-47eb-90e6-b509fbea37c0",
          "display": "Dorota Juśkiewicz"
        },
        "asserter": {
          "reference": "urn:uuid:03667e88-b09c-4f07-b206-d89d51355689",
          "display": "Szpital Powiatowy im. Marcela Nenckiego"
        }
      }
    },
    {
      "fullUrl": "urn:uuid:d345cd91-b21d-41bd-9e99-705c2667e001",
      "resource": {
        "resourceType": "Condition",
        "id": "d345cd91-b21d-41bd-9e99-705c2667e001",
        "meta": {
          "profile": [
            "http://hl7.org/fhir/uv/ips/StructureDefinition/Condition-uv-ips"
          ]
        },
        "category": [
          {
            "coding": [
              {
                "code": "problem-list-item",
                "system": "http://terminology.hl7.org/CodeSystem/condition-category",
                "display": "Problem List Item"
              }
            ]
          }
        ],
        "code": {
          "coding": [
            {
              "code": "235919008",
              "system": "http://snomed.info/sct",
              "display": "Gallbladder calculus (disorder)"
            }
          ],
          "text": "Gallstone"
        },
        "text": {
          "status": "generated",
          "div": "<div xmlns=\"http://www.w3.org/1999/xhtml\"><table class=\"hl7__ips\"><tr><td><span class=\"grayedout\">Gallstone</span></td><td><span class=\"nb\">07-Jul-2021 - 07-Jul-2021</span></td><td><span class=\"grayedout\">inactive</span></td></tr></table></div>"
        },
        "onsetDateTime": "2021-07-07",
        "abatementDateTime": "2021-07-07",
        "subject": {
          "reference": "urn:uuid:7d418f0c-5a3a-47eb-90e6-b509fbea37c0",
          "display": "Dorota Juśkiewicz"
        },
        "asserter": {
          "reference": "urn:uuid:03667e88-b09c-4f07-b206-d89d51355689",
          "display": "Szpital Powiatowy im. Marcela Nenckiego"
        }
      }
    },
    {
      "fullUrl": "urn:uuid:77041040-b8ea-41b0-bbc3-591d788c177a",
      "resource": {
        "resourceType": "Condition",
        "id": "77041040-b8ea-41b0-bbc3-591d788c177a",
        "meta": {
          "profile": [
            "http://hl7.org/fhir/uv/ips/StructureDefinition/Condition-uv-ips"
          ]
        },
        "category": [
          {
            "coding": [
              {
                "code": "problem-list-item",
                "system": "http://terminology.hl7.org/CodeSystem/condition-category",
                "display": "Problem List Item"
              }
            ]
          }
        ],
        "code": {
          "coding": [
            {
              "code": "444814009",
              "system": "http://snomed.info/sct",
              "display": "Viral sinusitis (disorder)"
            }
          ],
          "text": "Viral sinusitis"
        },
        "text": {
          "status": "generated",
          "div": "<div xmlns=\"http://www.w3.org/1999/xhtml\"><table class=\"hl7__ips\"><tr><td><span class=\"grayedout\">Viral sinusitis</span></td><td><span class=\"nb\">14-Apr-2021 - 25-Apr-2021</span></td><td><span class=\"grayedout\">inactive</span></td></tr></table></div>"
        },
        "onsetDateTime": "2021-04-14",
        "abatementDateTime": "2021-04-25",
        "subject": {
          "reference": "urn:uuid:7d418f0c-5a3a-47eb-90e6-b509fbea37c0",
          "display": "Dorota Juśkiewicz"
        },
        "asserter": {
          "reference": "urn:uuid:03667e88-b09c-4f07-b206-d89d51355689",
          "display": "Szpital Powiatowy im. Marcela Nenckiego"
        }
      }
    },
    {
      "fullUrl": "urn:uuid:9c50d947-6430-471f-b711-bc396e601afe",
      "resource": {
        "resourceType": "Condition",
        "id": "9c50d947-6430-471f-b711-bc396e601afe",
        "meta": {
          "profile": [
            "http://hl7.org/fhir/uv/ips/StructureDefinition/Condition-uv-ips"
          ]
        },
        "category": [
          {
            "coding": [
              {
                "code": "problem-list-item",
                "system": "http://terminology.hl7.org/CodeSystem/condition-category",
                "display": "Problem List Item"
              }
            ]
          }
        ],
        "code": {
          "coding": [
            {
              "code": "444814009",
              "system": "http://snomed.info/sct",
              "display": "Viral sinusitis (disorder)"
            }
          ],
          "text": "Viral sinusitis"
        },
        "text": {
          "status": "generated",
          "div": "<div xmlns=\"http://www.w3.org/1999/xhtml\"><table class=\"hl7__ips\"><tr><td><span class=\"grayedout\">Viral sinusitis</span></td><td><span class=\"nb\">22-Apr-2020 - 09-May-2020</span></td><td><span class=\"grayedout\">inactive</span></td></tr></table></div>"
        },
        "onsetDateTime": "2020-04-22",
        "abatementDateTime": "2020-05-09",
        "subject": {
          "reference": "urn:uuid:7d418f0c-5a3a-47eb-90e6-b509fbea37c0",
          "display": "Dorota Juśkiewicz"
        },
        "asserter": {
          "reference": "urn:uuid:03667e88-b09c-4f07-b206-d89d51355689",
          "display": "Szpital Powiatowy im. Marcela Nenckiego"
        }
      }
    },
    {
      "fullUrl": "urn:uuid:661dc5c7-570d-4f5e-8f33-284bc35df499",
      "resource": {
        "resourceType": "Condition",
        "id": "661dc5c7-570d-4f5e-8f33-284bc35df499",
        "meta": {
          "profile": [
            "http://hl7.org/fhir/uv/ips/StructureDefinition/Condition-uv-ips"
          ]
        },
        "category": [
          {
            "coding": [
              {
                "code": "problem-list-item",
                "system": "http://terminology.hl7.org/CodeSystem/condition-category",
                "display": "Problem List Item"
              }
            ]
          }
        ],
        "code": {
          "coding": [
            {
              "code": "444814009",
              "system": "http://snomed.info/sct",
              "display": "Viral sinusitis (disorder)"
            }
          ],
          "text": "Viral sinusitis"
        },
        "text": {
          "status": "generated",
          "div": "<div xmlns=\"http://www.w3.org/1999/xhtml\"><table class=\"hl7__ips\"><tr><td><span class=\"grayedout\">Viral sinusitis</span></td><td><span class=\"nb\">25-Sep-2019 - 12-Oct-2019</span></td><td><span class=\"grayedout\">inactive</span></td></tr></table></div>"
        },
        "onsetDateTime": "2019-09-25",
        "abatementDateTime": "2019-10-12",
        "subject": {
          "reference": "urn:uuid:7d418f0c-5a3a-47eb-90e6-b509fbea37c0",
          "display": "Dorota Juśkiewicz"
        },
        "asserter": {
          "reference": "urn:uuid:03667e88-b09c-4f07-b206-d89d51355689",
          "display": "Szpital Powiatowy im. Marcela Nenckiego"
        }
      }
    },
    {
      "fullUrl": "urn:uuid:5cc72c78-4ed3-497a-8c29-4b90a57cbc72",
      "resource": {
        "resourceType": "Condition",
        "id": "5cc72c78-4ed3-497a-8c29-4b90a57cbc72",
        "meta": {
          "profile": [
            "http://hl7.org/fhir/uv/ips/StructureDefinition/Condition-uv-ips"
          ]
        },
        "category": [
          {
            "coding": [
              {
                "code": "problem-list-item",
                "system": "http://terminology.hl7.org/CodeSystem/condition-category",
                "display": "Problem List Item"
              }
            ]
          }
        ],
        "code": {
          "coding": [
            {
              "code": "39848009",
              "system": "http://snomed.info/sct",
              "display": "Whiplash injury to neck (disorder)"
            }
          ],
          "text": "Whiplash injury to neck"
        },
        "text": {
          "status": "generated",
          "div": "<div xmlns=\"http://www.w3.org/1999/xhtml\"><table class=\"hl7__ips\"><tr><td><span class=\"grayedout\">Whiplash injury to neck</span></td><td><span class=\"nb\">02-Mar-2017 - 14-Apr-2017</span></td><td><span class=\"grayedout\">inactive</span></td></tr></table></div>"
        },
        "onsetDateTime": "2017-03-02",
        "abatementDateTime": "2017-04-14",
        "subject": {
          "reference": "urn:uuid:7d418f0c-5a3a-47eb-90e6-b509fbea37c0",
          "display": "Dorota Juśkiewicz"
        },
        "asserter": {
          "reference": "urn:uuid:03667e88-b09c-4f07-b206-d89d51355689",
          "display": "Szpital Powiatowy im. Marcela Nenckiego"
        }
      }
    },
    {
      "fullUrl": "urn:uuid:f68f39e4-5302-4bbe-b26f-1e431c8db9fa",
      "resource": {
        "resourceType": "Condition",
        "id": "f68f39e4-5302-4bbe-b26f-1e431c8db9fa",
        "meta": {
          "profile": [
            "http://hl7.org/fhir/uv/ips/StructureDefinition/Condition-uv-ips"
          ]
        },
        "category": [
          {
            "coding": [
              {
                "code": "problem-list-item",
                "system": "http://terminology.hl7.org/CodeSystem/condition-category",
                "display": "Problem List Item"
              }
            ]
          }
        ],
        "code": {
          "coding": [
            {
              "code": "90460009",
              "system": "http://snomed.info/sct",
              "display": "Injury of neck (disorder)"
            }
          ],
          "text": "Injury of neck"
        },
        "text": {
          "status": "generated",
          "div": "<div xmlns=\"http://www.w3.org/1999/xhtml\"><table class=\"hl7__ips\"><tr><td><span class=\"grayedout\">Injury of neck</span></td><td><span class=\"nb\">02-Mar-2017 - 14-Apr-2017</span></td><td><span class=\"grayedout\">inactive</span></td></tr></table></div>"
        },
        "onsetDateTime": "2017-03-02",
        "abatementDateTime": "2017-04-14",
        "subject": {
          "reference": "urn:uuid:7d418f0c-5a3a-47eb-90e6-b509fbea37c0",
          "display": "Dorota Juśkiewicz"
        },
        "asserter": {
          "reference": "urn:uuid:03667e88-b09c-4f07-b206-d89d51355689",
          "display": "Szpital Powiatowy im. Marcela Nenckiego"
        }
      }
    },
    {
      "fullUrl": "urn:uuid:256bbf1f-0673-492d-a055-8bd3906e31d4",
      "resource": {
        "resourceType": "MedicationStatement",
        "id": "256bbf1f-0673-492d-a055-8bd3906e31d4",
        "meta": {
          "profile": [
            "http://hl7.eu/fhir/eps/StructureDefinition/MedicationStatement-eu-eps"
          ]
        },
        "effectivePeriod": {
          "extension": [
            {
              "url": "http://hl7.org/fhir/StructureDefinition/data-absent-reason",
              "valueCode": "unknown"
            }
          ]
        },
        "status": "active",
        "medicationCodeableConcept": {
          "coding": [
            {
              "code": "787481004",
              "system": "http://snomed.info/sct",
              "display": "No known medications (situation)"
            }
          ]
        },
        "subject": {
          "reference": "urn:uuid:7d418f0c-5a3a-47eb-90e6-b509fbea37c0",
          "display": "Dorota Juśkiewicz"
        }
      }
    },
    {
      "fullUrl": "urn:uuid:99cdb0e8-84e8-444b-845f-2fd4ba9db3e3",
      "resource": {
        "resourceType": "Immunization",
        "id": "99cdb0e8-84e8-444b-845f-2fd4ba9db3e3",
        "meta": {
          "profile": [
            "http://hl7.org/fhir/uv/ips/StructureDefinition/Immunization-uv-ips"
          ]
        },
        "vaccineCode": {
          "coding": [
            {
              "code": "1181000221105",
              "system": "http://snomed.info/sct",
              "display": "Vaccine product containing Influenza virus antigen"
            },
            {
              "code": "J07BB02",
              "system": "http://www.whocc.no/atc",
              "display": "Influenza, inactivated, split virus"
            }
          ],
          "text": "Influenza virus antigen only vaccine product"
        },
        "site": {
          "coding": [
            {
              "code": "244979005",
              "system": "http://snomed.info/sct",
              "display": "Entire muscle of upper arm"
            }
          ],
          "text": "Entire muscle of upper arm"
        },
        "route": {
          "coding": [
            {
              "code": "78421000",
              "system": "http://snomed.info/sct",
              "display": "Intramuscular route"
            }
          ],
          "text": "Intramuscular route"
        },
        "text": {
          "status": "generated",
          "div": "<div xmlns=\"http://www.w3.org/1999/xhtml\"><table class=\"hl7__ips\"><tr><td>Influenza virus antigen only vaccine product</td><td><span class=\"nb\">13-Aug-2024</span></td></tr></table></div>"
        },
        "status": "completed",
        "patient": {
          "reference": "urn:uuid:7d418f0c-5a3a-47eb-90e6-b509fbea37c0",
          "display": "Dorota Juśkiewicz"
        },
        "occurrenceDateTime": "2024-08-13",
        "lotNumber": "PE-syHr2LuE5",
        "expirationDate": "2024-12-27"
      }
    },
    {
      "fullUrl": "urn:uuid:e03eb4ee-bd46-4efb-881a-feeec267a942",
      "resource": {
        "resourceType": "Immunization",
        "id": "e03eb4ee-bd46-4efb-881a-feeec267a942",
        "meta": {
          "profile": [
            "http://hl7.org/fhir/uv/ips/StructureDefinition/Immunization-uv-ips"
          ]
        },
        "vaccineCode": {
          "coding": [
            {
              "code": "777725002",
              "system": "http://snomed.info/sct",
              "display": "Vaccine product containing only Clostridium tetani toxoid antigen adsorbed"
            },
            {
              "code": "J07AM51",
              "system": "http://www.whocc.no/atc",
              "display": "Diphtheria-tetanus vaccines, adult type"
            }
          ],
          "text": "Clostridium tetani toxoid antigen adsorbed only vaccine product"
        },
        "site": {
          "coding": [
            {
              "code": "244979005",
              "system": "http://snomed.info/sct",
              "display": "Entire muscle of upper arm"
            }
          ],
          "text": "Entire muscle of upper arm"
        },
        "route": {
          "coding": [
            {
              "code": "78421000",
              "system": "http://snomed.info/sct",
              "display": "Intramuscular route"
            }
          ],
          "text": "Intramuscular route"
        },
        "text": {
          "status": "generated",
          "div": "<div xmlns=\"http://www.w3.org/1999/xhtml\"><table class=\"hl7__ips\"><tr><td>Clostridium tetani toxoid antigen adsorbed only vaccine product</td><td><span class=\"nb\">17-May-2022</span></td></tr></table></div>"
        },
        "status": "completed",
        "patient": {
          "reference": "urn:uuid:7d418f0c-5a3a-47eb-90e6-b509fbea37c0",
          "display": "Dorota Juśkiewicz"
        },
        "occurrenceDateTime": "2022-05-17",
        "lotNumber": "UE-HhwS1z",
        "expirationDate": "2022-12-20"
      }
    },
    {
      "fullUrl": "urn:uuid:e6859d2d-8273-4a82-9838-36fdb982950f",
      "resource": {
        "resourceType": "Immunization",
        "id": "e6859d2d-8273-4a82-9838-36fdb982950f",
        "meta": {
          "profile": [
            "http://hl7.org/fhir/uv/ips/StructureDefinition/Immunization-uv-ips"
          ]
        },
        "vaccineCode": {
          "coding": [
            {
              "code": "1119349007",
              "system": "http://snomed.info/sct",
              "display": "Vaccine product containing SARS-CoV-2 mRNA"
            },
            {
              "code": "J07BX03",
              "system": "http://www.whocc.no/atc",
              "display": "COVID-19 mRNA vaccines"
            }
          ],
          "text": "SARS-CoV-2 mRNA vaccine"
        },
        "site": {
          "coding": [
            {
              "code": "244979005",
              "system": "http://snomed.info/sct",
              "display": "Entire muscle of upper arm"
            }
          ],
          "text": "Entire muscle of upper arm"
        },
        "route": {
          "coding": [
            {
              "code": "78421000",
              "system": "http://snomed.info/sct",
              "display": "Intramuscular route"
            }
          ],
          "text": "Intramuscular route"
        },
        "text": {
          "status": "generated",
          "div": "<div xmlns=\"http://www.w3.org/1999/xhtml\"><table class=\"hl7__ips\"><tr><td>SARS-CoV-2 mRNA vaccine</td><td><span class=\"nb\">02-Mar-2021</span></td></tr></table></div>"
        },
        "status": "completed",
        "patient": {
          "reference": "urn:uuid:7d418f0c-5a3a-47eb-90e6-b509fbea37c0",
          "display": "Dorota Juśkiewicz"
        },
        "occurrenceDateTime": "2021-03-02",
        "lotNumber": "LJ-YPP4dI",
        "expirationDate": "2022-02-07"
      }
    },
    {
      "fullUrl": "urn:uuid:e822fccf-3281-4e71-97bb-a1a3e54478c6",
      "resource": {
        "resourceType": "Procedure",
        "id": "e822fccf-3281-4e71-97bb-a1a3e54478c6",
        "meta": {
          "profile": [
            "http://hl7.org/fhir/uv/ips/StructureDefinition/Procedure-uv-ips"
          ]
        },
        "code": {
          "coding": [
            {
              "code": "171207006",
              "system": "http://snomed.info/sct",
              "display": "Depression screening (procedure)"
            }
          ],
          "text": "Depression screening"
        },
        "text": {
          "status": "generated",
          "div": "<div xmlns=\"http://www.w3.org/1999/xhtml\"><table class=\"hl7__ips\"><tr><td>Depression screening</td><td><span class=\"nb\">04-Jun-2025</span></td><td>-</td></tr></table></div>"
        },
        "status": "completed",
        "performedDateTime": "2025-06-04",
        "subject": {
          "reference": "urn:uuid:7d418f0c-5a3a-47eb-90e6-b509fbea37c0",
          "display": "Dorota Juśkiewicz"
        }
      }
    },
    {
      "fullUrl": "urn:uuid:a5c89a11-019c-44c1-a9d3-095940f82c52",
      "resource": {
        "resourceType": "Procedure",
        "id": "a5c89a11-019c-44c1-a9d3-095940f82c52",
        "meta": {
          "profile": [
            "http://hl7.org/fhir/uv/ips/StructureDefinition/Procedure-uv-ips"
          ]
        },
        "code": {
          "coding": [
            {
              "code": "710824005",
              "system": "http://snomed.info/sct",
              "display": "Assessment of health and social care needs (procedure)"
            }
          ],
          "text": "Assessment of health and social care needs"
        },
        "text": {
          "status": "generated",
          "div": "<div xmlns=\"http://www.w3.org/1999/xhtml\"><table class=\"hl7__ips\"><tr><td>Assessment of health and social care needs</td><td><span class=\"nb\">04-Jun-2025</span></td><td>-</td></tr></table></div>"
        },
        "status": "completed",
        "performedDateTime": "2025-06-04",
        "subject": {
          "reference": "urn:uuid:7d418f0c-5a3a-47eb-90e6-b509fbea37c0",
          "display": "Dorota Juśkiewicz"
        }
      }
    },
    {
      "fullUrl": "urn:uuid:e0e89688-871a-4125-b775-b6933555bf7b",
      "resource": {
        "resourceType": "Procedure",
        "id": "e0e89688-871a-4125-b775-b6933555bf7b",
        "meta": {
          "profile": [
            "http://hl7.org/fhir/uv/ips/StructureDefinition/Procedure-uv-ips"
          ]
        },
        "code": {
          "coding": [
            {
              "code": "762993000",
              "system": "http://snomed.info/sct",
              "display": "Assessment using Morse Fall Scale (procedure)"
            }
          ],
          "text": "Assessment using Morse Fall Scale"
        },
        "text": {
          "status": "generated",
          "div": "<div xmlns=\"http://www.w3.org/1999/xhtml\"><table class=\"hl7__ips\"><tr><td>Assessment using Morse Fall Scale</td><td><span class=\"nb\">04-Jun-2025</span></td><td>-</td></tr></table></div>"
        },
        "status": "completed",
        "performedDateTime": "2025-06-04",
        "subject": {
          "reference": "urn:uuid:7d418f0c-5a3a-47eb-90e6-b509fbea37c0",
          "display": "Dorota Juśkiewicz"
        }
      }
    },
    {
      "fullUrl": "urn:uuid:957b2806-2173-4555-8b4c-45e16d70ad71",
      "resource": {
        "resourceType": "Procedure",
        "id": "957b2806-2173-4555-8b4c-45e16d70ad71",
        "meta": {
          "profile": [
            "http://hl7.org/fhir/uv/ips/StructureDefinition/Procedure-uv-ips"
          ]
        },
        "code": {
          "coding": [
            {
              "code": "454711000124102",
              "system": "http://snomed.info/sct",
              "display": "Depression screening using Patient Health Questionnaire Two-Item score (procedure)"
            }
          ]
        },
        "text": {
          "status": "generated",
          "div": "<div xmlns=\"http://www.w3.org/1999/xhtml\"><table class=\"hl7__ips\"><tr><td>Depression screening using Patient Health Questionnaire Two-Item score (procedure)</td><td><span class=\"nb\">04-Jun-2025</span></td><td>-</td></tr></table></div>"
        },
        "status": "completed",
        "performedDateTime": "2025-06-04",
        "subject": {
          "reference": "urn:uuid:7d418f0c-5a3a-47eb-90e6-b509fbea37c0",
          "display": "Dorota Juśkiewicz"
        }
      }
    },
    {
      "fullUrl": "urn:uuid:a907c106-975f-44ba-ae8a-5306ac97b5f6",
      "resource": {
        "resourceType": "Procedure",
        "id": "a907c106-975f-44ba-ae8a-5306ac97b5f6",
        "meta": {
          "profile": [
            "http://hl7.org/fhir/uv/ips/StructureDefinition/Procedure-uv-ips"
          ]
        },
        "code": {
          "coding": [
            {
              "code": "710841007",
              "system": "http://snomed.info/sct",
              "display": "Assessment of anxiety (procedure)"
            }
          ],
          "text": "Assessment of anxiety"
        },
        "text": {
          "status": "generated",
          "div": "<div xmlns=\"http://www.w3.org/1999/xhtml\"><table class=\"hl7__ips\"><tr><td>Assessment of anxiety</td><td><span class=\"nb\">22-May-2024</span></td><td>-</td></tr></table></div>"
        },
        "status": "completed",
        "performedDateTime": "2024-05-22",
        "subject": {
          "reference": "urn:uuid:7d418f0c-5a3a-47eb-90e6-b509fbea37c0",
          "display": "Dorota Juśkiewicz"
        }
      }
    },
    {
      "fullUrl": "urn:uuid:fa6bfd8f-dfe4-4885-96bf-0cd97508cbcb",
      "resource": {
        "resourceType": "Procedure",
        "id": "fa6bfd8f-dfe4-4885-96bf-0cd97508cbcb",
        "meta": {
          "profile": [
            "http://hl7.org/fhir/uv/ips/StructureDefinition/Procedure-uv-ips"
          ]
        },
        "code": {
          "coding": [
            {
              "code": "713106006",
              "system": "http://snomed.info/sct",
              "display": "Screening for drug abuse (procedure)"
            }
          ],
          "text": "Screening for drug abuse"
        },
        "text": {
          "status": "generated",
          "div": "<div xmlns=\"http://www.w3.org/1999/xhtml\"><table class=\"hl7__ips\"><tr><td>Screening for drug abuse</td><td><span class=\"nb\">22-May-2024</span></td><td>-</td></tr></table></div>"
        },
        "status": "completed",
        "performedDateTime": "2024-05-22",
        "subject": {
          "reference": "urn:uuid:7d418f0c-5a3a-47eb-90e6-b509fbea37c0",
          "display": "Dorota Juśkiewicz"
        }
      }
    },
    {
      "fullUrl": "urn:uuid:a57c9bc8-3c5b-4e3e-91f5-68913ee20b9c",
      "resource": {
        "resourceType": "Procedure",
        "id": "a57c9bc8-3c5b-4e3e-91f5-68913ee20b9c",
        "meta": {
          "profile": [
            "http://hl7.org/fhir/uv/ips/StructureDefinition/Procedure-uv-ips"
          ]
        },
        "code": {
          "coding": [
            {
              "code": "866148006",
              "system": "http://snomed.info/sct",
              "display": "Screening for domestic abuse (procedure)"
            }
          ],
          "text": "Screening for domestic abuse"
        },
        "text": {
          "status": "generated",
          "div": "<div xmlns=\"http://www.w3.org/1999/xhtml\"><table class=\"hl7__ips\"><tr><td>Screening for domestic abuse</td><td><span class=\"nb\">22-May-2024</span></td><td>-</td></tr></table></div>"
        },
        "status": "completed",
        "performedDateTime": "2024-05-22",
        "subject": {
          "reference": "urn:uuid:7d418f0c-5a3a-47eb-90e6-b509fbea37c0",
          "display": "Dorota Juśkiewicz"
        }
      }
    },
    {
      "fullUrl": "urn:uuid:17a993f3-b800-4f7d-a139-e83690b9bdd9",
      "resource": {
        "resourceType": "Procedure",
        "id": "17a993f3-b800-4f7d-a139-e83690b9bdd9",
        "meta": {
          "profile": [
            "http://hl7.org/fhir/uv/ips/StructureDefinition/Procedure-uv-ips"
          ]
        },
        "code": {
          "coding": [
            {
              "code": "428211000124100",
              "system": "http://snomed.info/sct",
              "display": "Assessment of substance use (procedure)"
            }
          ],
          "text": "Assessment of substance use"
        },
        "text": {
          "status": "generated",
          "div": "<div xmlns=\"http://www.w3.org/1999/xhtml\"><table class=\"hl7__ips\"><tr><td>Assessment of substance use</td><td><span class=\"nb\">22-May-2024</span></td><td>-</td></tr></table></div>"
        },
        "status": "completed",
        "performedDateTime": "2024-05-22",
        "subject": {
          "reference": "urn:uuid:7d418f0c-5a3a-47eb-90e6-b509fbea37c0",
          "display": "Dorota Juśkiewicz"
        }
      }
    },
    {
      "fullUrl": "urn:uuid:febe1aec-3aa2-41c7-acd6-0c0dcfdd95d4",
      "resource": {
        "resourceType": "Procedure",
        "id": "febe1aec-3aa2-41c7-acd6-0c0dcfdd95d4",
        "meta": {
          "profile": [
            "http://hl7.org/fhir/uv/ips/StructureDefinition/Procedure-uv-ips"
          ]
        },
        "code": {
          "coding": [
            {
              "code": "763302001",
              "system": "http://snomed.info/sct",
              "display": "Assessment using Alcohol Use Disorders Identification Test - Consumption (procedure)"
            }
          ],
          "text": "Assessment using AUDIT-C (Alcohol Use Disorders Identification Test - Consumption)"
        },
        "text": {
          "status": "generated",
          "div": "<div xmlns=\"http://www.w3.org/1999/xhtml\"><table class=\"hl7__ips\"><tr><td>Assessment using AUDIT-C (Alcohol Use Disorders Identification Test - Consumption)</td><td><span class=\"nb\">08-May-2024</span></td><td>-</td></tr></table></div>"
        },
        "status": "completed",
        "performedDateTime": "2024-05-08",
        "subject": {
          "reference": "urn:uuid:7d418f0c-5a3a-47eb-90e6-b509fbea37c0",
          "display": "Dorota Juśkiewicz"
        }
      }
    },
    {
      "fullUrl": "urn:uuid:4ea53978-7d50-40c7-af51-278ec931e64c",
      "resource": {
        "resourceType": "Procedure",
        "id": "4ea53978-7d50-40c7-af51-278ec931e64c",
        "meta": {
          "profile": [
            "http://hl7.org/fhir/uv/ips/StructureDefinition/Procedure-uv-ips"
          ]
        },
        "code": {
          "coding": [
            {
              "code": "430193006",
              "system": "http://snomed.info/sct",
              "display": "Medication Reconciliation (procedure)"
            }
          ],
          "text": "Medication reconciliation"
        },
        "text": {
          "status": "generated",
          "div": "<div xmlns=\"http://www.w3.org/1999/xhtml\"><table class=\"hl7__ips\"><tr><td>Medication reconciliation</td><td><span class=\"nb\">24-Apr-2024</span></td><td>-</td></tr></table></div>"
        },
        "status": "completed",
        "performedDateTime": "2024-04-24",
        "subject": {
          "reference": "urn:uuid:7d418f0c-5a3a-47eb-90e6-b509fbea37c0",
          "display": "Dorota Juśkiewicz"
        }
      }
    },
    {
      "fullUrl": "urn:uuid:a66ab7d4-7147-43d4-a4c0-bfaa24d22d5e",
      "resource": {
        "resourceType": "Procedure",
        "id": "a66ab7d4-7147-43d4-a4c0-bfaa24d22d5e",
        "meta": {
          "profile": [
            "http://hl7.org/fhir/uv/ips/StructureDefinition/Procedure-uv-ips"
          ]
        },
        "code": {
          "coding": [
            {
              "code": "45595009",
              "system": "http://snomed.info/sct",
              "display": "Laparoscopic Removal of Gall Bladder"
            }
          ],
          "text": "Laparoscopic cholecystectomy"
        },
        "text": {
          "status": "generated",
          "div": "<div xmlns=\"http://www.w3.org/1999/xhtml\"><table class=\"hl7__ips\"><tr><td>Laparoscopic cholecystectomy</td><td><span class=\"nb\">07-Jul-2021</span></td><td>-</td></tr></table></div>"
        },
        "status": "completed",
        "performedDateTime": "2021-07-07",
        "subject": {
          "reference": "urn:uuid:7d418f0c-5a3a-47eb-90e6-b509fbea37c0",
          "display": "Dorota Juśkiewicz"
        }
      }
    },
    {
      "fullUrl": "urn:uuid:bd3714cb-a999-45ee-a8a5-138291f55eb4",
      "resource": {
        "resourceType": "Procedure",
        "id": "bd3714cb-a999-45ee-a8a5-138291f55eb4",
        "meta": {
          "profile": [
            "http://hl7.org/fhir/uv/ips/StructureDefinition/Procedure-uv-ips"
          ]
        },
        "code": {
          "coding": [
            {
              "code": "52765003",
              "system": "http://snomed.info/sct",
              "display": "Intubation"
            }
          ],
          "text": "Intubation"
        },
        "text": {
          "status": "generated",
          "div": "<div xmlns=\"http://www.w3.org/1999/xhtml\"><table class=\"hl7__ips\"><tr><td>Intubation</td><td><span class=\"nb\">07-Jul-2021</span></td><td>-</td></tr></table></div>"
        },
        "status": "completed",
        "performedDateTime": "2021-07-07",
        "subject": {
          "reference": "urn:uuid:7d418f0c-5a3a-47eb-90e6-b509fbea37c0",
          "display": "Dorota Juśkiewicz"
        }
      }
    },
    {
      "fullUrl": "urn:uuid:faa24605-4ce5-4a91-93c1-7e52188e8d05",
      "resource": {
        "resourceType": "Procedure",
        "id": "faa24605-4ce5-4a91-93c1-7e52188e8d05",
        "meta": {
          "profile": [
            "http://hl7.org/fhir/uv/ips/StructureDefinition/Procedure-uv-ips"
          ]
        },
        "code": {
          "coding": [
            {
              "code": "410770002",
              "system": "http://snomed.info/sct",
              "display": "Administration of anesthesia for procedure (procedure)"
            }
          ],
          "text": "Administration of anesthesia for procedure"
        },
        "text": {
          "status": "generated",
          "div": "<div xmlns=\"http://www.w3.org/1999/xhtml\"><table class=\"hl7__ips\"><tr><td>Administration of anesthesia for procedure</td><td><span class=\"nb\">07-Jul-2021</span></td><td>-</td></tr></table></div>"
        },
        "status": "completed",
        "performedDateTime": "2021-07-07",
        "subject": {
          "reference": "urn:uuid:7d418f0c-5a3a-47eb-90e6-b509fbea37c0",
          "display": "Dorota Juśkiewicz"
        }
      }
    },
    {
      "fullUrl": "urn:uuid:59dcb7fd-d242-4c87-8a69-f83761269f1c",
      "resource": {
        "resourceType": "Procedure",
        "id": "59dcb7fd-d242-4c87-8a69-f83761269f1c",
        "meta": {
          "profile": [
            "http://hl7.org/fhir/uv/ips/StructureDefinition/Procedure-uv-ips"
          ]
        },
        "code": {
          "coding": [
            {
              "code": "426701000119108",
              "system": "http://snomed.info/sct",
              "display": "Ultrasonography of abdomen  right upper quadrant and epigastrium"
            }
          ],
          "text": "Ultrasonography of abdomen"
        },
        "text": {
          "status": "generated",
          "div": "<div xmlns=\"http://www.w3.org/1999/xhtml\"><table class=\"hl7__ips\"><tr><td>Ultrasonography of abdomen</td><td><span class=\"nb\">07-Jul-2021</span></td><td>-</td></tr></table></div>"
        },
        "status": "completed",
        "performedDateTime": "2021-07-07",
        "subject": {
          "reference": "urn:uuid:7d418f0c-5a3a-47eb-90e6-b509fbea37c0",
          "display": "Dorota Juśkiewicz"
        }
      }
    },
    {
      "fullUrl": "urn:uuid:6e50ddf8-ee26-4e6f-927b-654841038c08",
      "resource": {
        "resourceType": "Procedure",
        "id": "6e50ddf8-ee26-4e6f-927b-654841038c08",
        "meta": {
          "profile": [
            "http://hl7.org/fhir/uv/ips/StructureDefinition/Procedure-uv-ips"
          ]
        },
        "code": {
          "coding": [
            {
              "code": "29303009",
              "system": "http://snomed.info/sct",
              "display": "Electrocardiographic procedure"
            }
          ],
          "text": "Electrocardiographic procedure"
        },
        "text": {
          "status": "generated",
          "div": "<div xmlns=\"http://www.w3.org/1999/xhtml\"><table class=\"hl7__ips\"><tr><td>Electrocardiographic procedure</td><td><span class=\"nb\">06-Jul-2021</span></td><td>-</td></tr></table></div>"
        },
        "status": "completed",
        "performedDateTime": "2021-07-06",
        "subject": {
          "reference": "urn:uuid:7d418f0c-5a3a-47eb-90e6-b509fbea37c0",
          "display": "Dorota Juśkiewicz"
        }
      }
    },
    {
      "fullUrl": "urn:uuid:26a9fbd1-5edc-49c8-9001-52bc2c1bcc0f",
      "resource": {
        "resourceType": "Procedure",
        "id": "26a9fbd1-5edc-49c8-9001-52bc2c1bcc0f",
        "meta": {
          "profile": [
            "http://hl7.org/fhir/uv/ips/StructureDefinition/Procedure-uv-ips"
          ]
        },
        "code": {
          "coding": [
            {
              "code": "225386006",
              "system": "http://snomed.info/sct",
              "display": "Pre-discharge assessment (procedure)"
            }
          ],
          "text": "Pre-discharge assessment"
        },
        "text": {
          "status": "generated",
          "div": "<div xmlns=\"http://www.w3.org/1999/xhtml\"><table class=\"hl7__ips\"><tr><td>Pre-discharge assessment</td><td><span class=\"nb\">04-Mar-2017</span></td><td>-</td></tr></table></div>"
        },
        "status": "completed",
        "performedDateTime": "2017-03-04",
        "subject": {
          "reference": "urn:uuid:7d418f0c-5a3a-47eb-90e6-b509fbea37c0",
          "display": "Dorota Juśkiewicz"
        }
      }
    },
    {
      "fullUrl": "urn:uuid:d14715f2-a228-495f-8bad-5a8ca5914f91",
      "resource": {
        "resourceType": "Procedure",
        "id": "d14715f2-a228-495f-8bad-5a8ca5914f91",
        "meta": {
          "profile": [
            "http://hl7.org/fhir/uv/ips/StructureDefinition/Procedure-uv-ips"
          ]
        },
        "code": {
          "coding": [
            {
              "code": "449381000124108",
              "system": "http://snomed.info/sct",
              "display": "Discharge from skilled nursing facility (procedure)"
            }
          ]
        },
        "text": {
          "status": "generated",
          "div": "<div xmlns=\"http://www.w3.org/1999/xhtml\"><table class=\"hl7__ips\"><tr><td>Discharge from skilled nursing facility (procedure)</td><td><span class=\"nb\">04-Mar-2017</span></td><td>-</td></tr></table></div>"
        },
        "status": "completed",
        "performedDateTime": "2017-03-04",
        "subject": {
          "reference": "urn:uuid:7d418f0c-5a3a-47eb-90e6-b509fbea37c0",
          "display": "Dorota Juśkiewicz"
        }
      }
    },
    {
      "fullUrl": "urn:uuid:6190b6e4-3fa3-41df-a3df-814403f4f5e3",
      "resource": {
        "resourceType": "Procedure",
        "id": "6190b6e4-3fa3-41df-a3df-814403f4f5e3",
        "meta": {
          "profile": [
            "http://hl7.org/fhir/uv/ips/StructureDefinition/Procedure-uv-ips"
          ]
        },
        "code": {
          "coding": [
            {
              "code": "409023009",
              "system": "http://snomed.info/sct",
              "display": "Professional / ancillary services care (regime/therapy)"
            }
          ],
          "text": "Professional / ancillary services care"
        },
        "text": {
          "status": "generated",
          "div": "<div xmlns=\"http://www.w3.org/1999/xhtml\"><table class=\"hl7__ips\"><tr><td>Professional / ancillary services care</td><td><span class=\"nb\">03-Mar-2017</span></td><td>-</td></tr></table></div>"
        },
        "status": "completed",
        "performedDateTime": "2017-03-03",
        "subject": {
          "reference": "urn:uuid:7d418f0c-5a3a-47eb-90e6-b509fbea37c0",
          "display": "Dorota Juśkiewicz"
        }
      }
    },
    {
      "fullUrl": "urn:uuid:d4a33d61-4411-4723-81cc-1aad38a64957",
      "resource": {
        "resourceType": "Procedure",
        "id": "d4a33d61-4411-4723-81cc-1aad38a64957",
        "meta": {
          "profile": [
            "http://hl7.org/fhir/uv/ips/StructureDefinition/Procedure-uv-ips"
          ]
        },
        "code": {
          "coding": [
            {
              "code": "410401003",
              "system": "http://snomed.info/sct",
              "display": "Nursing care/supplementary surveillance (regime/therapy)"
            }
          ],
          "text": "Nursing care/supplementary surveillance"
        },
        "text": {
          "status": "generated",
          "div": "<div xmlns=\"http://www.w3.org/1999/xhtml\"><table class=\"hl7__ips\"><tr><td>Nursing care/supplementary surveillance</td><td><span class=\"nb\">03-Mar-2017</span></td><td>-</td></tr></table></div>"
        },
        "status": "completed",
        "performedDateTime": "2017-03-03",
        "subject": {
          "reference": "urn:uuid:7d418f0c-5a3a-47eb-90e6-b509fbea37c0",
          "display": "Dorota Juśkiewicz"
        }
      }
    },
    {
      "fullUrl": "urn:uuid:1b7f792c-5382-43fe-b421-27677fb454cb",
      "resource": {
        "resourceType": "Procedure",
        "id": "1b7f792c-5382-43fe-b421-27677fb454cb",
        "meta": {
          "profile": [
            "http://hl7.org/fhir/uv/ips/StructureDefinition/Procedure-uv-ips"
          ]
        },
        "code": {
          "coding": [
            {
              "code": "63332003",
              "system": "http://snomed.info/sct",
              "display": "History AND physical examination (procedure)"
            }
          ],
          "text": "History AND physical examination"
        },
        "text": {
          "status": "generated",
          "div": "<div xmlns=\"http://www.w3.org/1999/xhtml\"><table class=\"hl7__ips\"><tr><td>History AND physical examination</td><td><span class=\"nb\">02-Mar-2017</span></td><td>-</td></tr></table></div>"
        },
        "status": "completed",
        "performedDateTime": "2017-03-02",
        "subject": {
          "reference": "urn:uuid:7d418f0c-5a3a-47eb-90e6-b509fbea37c0",
          "display": "Dorota Juśkiewicz"
        }
      }
    },
    {
      "fullUrl": "urn:uuid:ebfc32ff-e982-4677-8b38-0bd2e721dc64",
      "resource": {
        "resourceType": "Procedure",
        "id": "ebfc32ff-e982-4677-8b38-0bd2e721dc64",
        "meta": {
          "profile": [
            "http://hl7.org/fhir/uv/ips/StructureDefinition/Procedure-uv-ips"
          ]
        },
        "code": {
          "coding": [
            {
              "code": "315639002",
              "system": "http://snomed.info/sct",
              "display": "Initial patient assessment (procedure)"
            }
          ],
          "text": "Initial patient assessment"
        },
        "text": {
          "status": "generated",
          "div": "<div xmlns=\"http://www.w3.org/1999/xhtml\"><table class=\"hl7__ips\"><tr><td>Initial patient assessment</td><td><span class=\"nb\">02-Mar-2017</span></td><td>-</td></tr></table></div>"
        },
        "status": "completed",
        "performedDateTime": "2017-03-02",
        "subject": {
          "reference": "urn:uuid:7d418f0c-5a3a-47eb-90e6-b509fbea37c0",
          "display": "Dorota Juśkiewicz"
        }
      }
    },
    {
      "fullUrl": "urn:uuid:fc5609e8-0c34-4197-9ee5-8b2cedfb8b79",
      "resource": {
        "resourceType": "Procedure",
        "id": "fc5609e8-0c34-4197-9ee5-8b2cedfb8b79",
        "meta": {
          "profile": [
            "http://hl7.org/fhir/uv/ips/StructureDefinition/Procedure-uv-ips"
          ]
        },
        "code": {
          "coding": [
            {
              "code": "370789001",
              "system": "http://snomed.info/sct",
              "display": "Development of individualized plan of care (procedure)"
            }
          ],
          "text": "Development of individualized plan of care"
        },
        "text": {
          "status": "generated",
          "div": "<div xmlns=\"http://www.w3.org/1999/xhtml\"><table class=\"hl7__ips\"><tr><td>Development of individualized plan of care</td><td><span class=\"nb\">02-Mar-2017</span></td><td>-</td></tr></table></div>"
        },
        "status": "completed",
        "performedDateTime": "2017-03-02",
        "subject": {
          "reference": "urn:uuid:7d418f0c-5a3a-47eb-90e6-b509fbea37c0",
          "display": "Dorota Juśkiewicz"
        }
      }
    },
    {
      "fullUrl": "urn:uuid:c0214603-2a9f-46cd-881d-5f9150a9963d",
      "resource": {
        "resourceType": "AllergyIntolerance",
        "id": "c0214603-2a9f-46cd-881d-5f9150a9963d",
        "meta": {
          "profile": [
            "http://hl7.eu/fhir/base/StructureDefinition/allergyIntolerance-eu-core"
          ]
        },
        "code": {
          "text": ""
        },
        "clinicalStatus": {
          "coding": [
            {
              "code": "active",
              "system": "http://terminology.hl7.org/CodeSystem/allergyintolerance-clinical"
            }
          ]
        },
        "text": {
          "status": "generated",
          "div": "<div xmlns=\"http://www.w3.org/1999/xhtml\"><table class=\"hl7__ips\"><tr><th>Allergy/Intolerance</th><th>Onset Date</th><th>Status</th><th>Type</th><th>Reaction</th></tr><tr><td></td><td>?</td><td>active</td><td>?</td><td></td></tr></table></div>"
        },
        "verificationStatus": {
          "coding": [
            {
              "code": "confirmed",
              "system": "http://terminology.hl7.org/CodeSystem/allergyintolerance-verification"
            }
          ]
        },
        "patient": {
          "reference": "urn:uuid:7d418f0c-5a3a-47eb-90e6-b509fbea37c0",
          "display": "Dorota Juśkiewicz"
        },
        "_onsetDateTime": {
          "extension": [
            {
              "url": "http://hl7.org/fhir/StructureDefinition/data-absent-reason",
              "valueCode": "unknown"
            }
          ]
        }
      }
    },
    {
      "fullUrl": "urn:uuid:f5499937-7580-427a-93e5-ec8250d7da38",
      "resource": {
        "resourceType": "CarePlan",
        "id": "f5499937-7580-427a-93e5-ec8250d7da38",
        "category": [
          {
            "coding": [
              {
                "code": "assess-plan",
                "system": "http://terminology.hl7.org/CodeSystem/care-plan-category",
                "display": "Assessment and Plan"
              }
            ]
          }
        ],
        "activity": [
          {
            "detail": {
              "code": {
                "coding": [
                  {
                    "code": "443402002",
                    "system": "http://snomed.info/sct",
                    "display": "Lifestyle education regarding hypertension (procedure)"
                  }
                ]
              },
              "reasonCode": [
                {
                  "coding": [
                    {
                      "code": "59621000",
                      "system": "http://snomed.info/sct",
                      "display": "Essential hypertension (disorder)"
                    }
                  ]
                }
              ],
              "status": "unknown",
              "description": "Lifestyle education regarding hypertension",
              "kind": "Appointment"
            }
          }
        ],
        "period": {
          "start": "2017-07-05"
        },
        "goal": [
          {
            "reference": "urn:uuid:19fd0e27-032b-44ed-92bb-bc853feb2a0c"
          }
        ],
        "text": {
          "status": "generated",
          "div": "<div xmlns=\"http://www.w3.org/1999/xhtml\"><table class=\"hl7__ips first25\"><tr><th>Active Planned Care / Goals</th><th>Start Date</th><th>Reason</th></tr><tr><td>Lifestyle education regarding hypertension</td><td><span class=\"nb\">05-Jul-2017</span></td><td>Essential hypertension (disorder)</td></tr><tr><td><ul><li>Patient will implement recommended lifestyle changes to help control blood pressure, including dietary modifications, increased physical activity, and sodium restriction.</li></ul></td><td></td><td></td></tr></table></div>"
        },
        "status": "active",
        "intent": "plan",
        "subject": {
          "reference": "urn:uuid:7d418f0c-5a3a-47eb-90e6-b509fbea37c0",
          "display": "Dorota Juśkiewicz"
        }
      }
    },
    {
      "fullUrl": "urn:uuid:8bf58eea-21b5-4ea9-9b7b-85d6dd9f99c0",
      "resource": {
        "resourceType": "CarePlan",
        "id": "8bf58eea-21b5-4ea9-9b7b-85d6dd9f99c0",
        "category": [
          {
            "coding": [
              {
                "code": "assess-plan",
                "system": "http://terminology.hl7.org/CodeSystem/care-plan-category",
                "display": "Assessment and Plan"
              }
            ]
          }
        ],
        "activity": [
          {
            "detail": {
              "code": {
                "coding": [
                  {
                    "code": "698360004",
                    "system": "http://snomed.info/sct",
                    "display": "Diabetes self management plan (qualifier value)"
                  }
                ]
              },
              "reasonCode": [
                {
                  "coding": [
                    {
                      "code": "15777000",
                      "system": "http://snomed.info/sct",
                      "display": "Prediabetes"
                    }
                  ]
                }
              ],
              "status": "unknown",
              "description": "Diabetes self management plan",
              "kind": "Appointment"
            }
          }
        ],
        "period": {
          "start": "1971-12-08"
        },
        "goal": [
          {
            "reference": "urn:uuid:421b3caa-ecb2-4c9c-bafe-28b9908ea29d"
          },
          {
            "reference": "urn:uuid:fedb1c97-abf2-4286-a605-71ae9bd6e2d4"
          },
          {
            "reference": "urn:uuid:6592cbac-1083-41c4-b282-252b61b8c771"
          },
          {
            "reference": "urn:uuid:ff45b710-9275-4b9f-893e-058c4d824edf"
          },
          {
            "reference": "urn:uuid:aac45736-ae1a-4069-b07e-797ad7aa6859"
          }
        ],
        "text": {
          "status": "generated",
          "div": "<div xmlns=\"http://www.w3.org/1999/xhtml\"><table class=\"hl7__ips first25\"><tr><th>Active Planned Care / Goals</th><th>Start Date</th><th>Reason</th></tr><tr><td>Diabetes self management plan</td><td><span class=\"nb\">08-Dec-1971</span></td><td>Prediabetes</td></tr><tr><td><ul><li>Patient will implement and maintain a diabetes self-management plan to address prediabetes and reduce risk of progression to diabetes.</li><li>Achieve and maintain hemoglobin A1c within target range to reduce risk of diabetes complications.</li><li>Maintain fasting blood glucose within recommended range for prediabetes management.</li><li>Achieve and maintain weight loss of at least 5% of baseline body weight to reduce diabetes risk.</li><li>Maintain blood pressure within recommended range for patients with prediabetes and comorbidities.</li></ul></td><td></td><td></td></tr></table></div>"
        },
        "status": "active",
        "intent": "plan",
        "subject": {
          "reference": "urn:uuid:7d418f0c-5a3a-47eb-90e6-b509fbea37c0",
          "display": "Dorota Juśkiewicz"
        }
      }
    },
    {
      "fullUrl": "urn:uuid:de12ab7c-f792-4381-8050-23aea77a5946",
      "resource": {
        "resourceType": "ImmunizationRecommendation",
        "id": "de12ab7c-f792-4381-8050-23aea77a5946",
        "recommendation": [
          {
            "vaccineCode": [
              {
                "coding": [
                  {
                    "code": "1181000221105",
                    "system": "http://snomed.info/sct",
                    "display": "Vaccine product containing only Influenza virus antigen (medicinal product)"
                  }
                ]
              }
            ],
            "dateCriterion": [
              {
                "code": {
                  "coding": [
                    {
                      "code": "30980-7",
                      "system": "http://loinc.org",
                      "display": "Date vaccine due"
                    }
                  ]
                },
                "value": "2025-10-01"
              }
            ],
            "targetDisease": {
              "coding": [
                {
                  "code": "6142004",
                  "system": "http://snomed.info/sct",
                  "display": "Influenza (disorder)"
                }
              ]
            },
            "series": "Annual seasonal influenza vaccination",
            "forecastStatus": {
              "coding": [
                {
                  "code": "due",
                  "system": "http://terminology.hl7.org/CodeSystem/immunization-recommendation-status",
                  "display": "Due"
                }
              ]
            }
          }
        ],
        "text": {
          "status": "generated",
          "div": "<div xmlns=\"http://www.w3.org/1999/xhtml\"><table class=\"hl7__ips\"><tr><td>Vaccine product containing only Influenza virus antigen (medicinal product)</td><td><span class=\"nb\">01-Oct-2025</span></td><td>Annual seasonal influenza vaccination</td></tr></table></div>"
        },
        "date": "2025-12-11",
        "patient": {
          "reference": "urn:uuid:7d418f0c-5a3a-47eb-90e6-b509fbea37c0",
          "display": "Dorota Juśkiewicz"
        }
      }
    },
    {
      "fullUrl": "urn:uuid:ff174eb3-ed6a-45cb-a33c-164f0b05b9d7",
      "resource": {
        "resourceType": "Observation",
        "id": "ff174eb3-ed6a-45cb-a33c-164f0b05b9d7",
        "meta": {
          "profile": [
            "http://hl7.org/fhir/StructureDefinition/vitalsigns"
          ]
        },
        "category": [
          {
            "coding": [
              {
                "system": "http://terminology.hl7.org/CodeSystem/observation-category",
                "code": "vital-signs",
                "display": "Vital Signs"
              }
            ]
          }
        ],
        "valueQuantity": {
          "value": 165.5,
          "code": "cm",
          "unit": "cm"
        },
        "text": {
          "status": "generated",
          "div": "<div xmlns=\"http://www.w3.org/1999/xhtml\"><table class=\"hl7__ips\"><tr><th>Vital Sign</th><th>Date</th><th>Measurement</th></tr><tr><td>Body Height</td><td>15-Jul-2025</td><td>165.5 cm</td></tr></table></div>"
        },
        "status": "final",
        "code": {
          "coding": [
            {
              "code": "8302-2",
              "system": "http://loinc.org",
              "display": "Body Height"
            }
          ]
        },
        "subject": {
          "reference": "urn:uuid:7d418f0c-5a3a-47eb-90e6-b509fbea37c0",
          "display": "Dorota Juśkiewicz"
        },
        "effectiveDateTime": "2025-07-15"
      }
    },
    {
      "fullUrl": "urn:uuid:e321a9d1-6fd5-4708-a295-5070909a9a65",
      "resource": {
        "resourceType": "Observation",
        "id": "e321a9d1-6fd5-4708-a295-5070909a9a65",
        "meta": {
          "profile": [
            "http://hl7.org/fhir/StructureDefinition/vitalsigns"
          ]
        },
        "category": [
          {
            "coding": [
              {
                "system": "http://terminology.hl7.org/CodeSystem/observation-category",
                "code": "vital-signs",
                "display": "Vital Signs"
              }
            ]
          }
        ],
        "valueQuantity": {
          "value": 2,
          "code": "{score}",
          "unit": "{score}"
        },
        "text": {
          "status": "generated",
          "div": "<div xmlns=\"http://www.w3.org/1999/xhtml\"><table class=\"hl7__ips\"><tr><th>Vital Sign</th><th>Date</th><th>Measurement</th></tr><tr><td>Pain severity - 0-10 verbal numeric rating [Score] - Reported</td><td>15-Jul-2025</td><td>2 {score}</td></tr></table></div>"
        },
        "status": "final",
        "code": {
          "coding": [
            {
              "code": "72514-3",
              "system": "http://loinc.org",
              "display": "Pain severity - 0-10 verbal numeric rating [Score] - Reported"
            }
          ]
        },
        "subject": {
          "reference": "urn:uuid:7d418f0c-5a3a-47eb-90e6-b509fbea37c0",
          "display": "Dorota Juśkiewicz"
        },
        "effectiveDateTime": "2025-07-15"
      }
    },
    {
      "fullUrl": "urn:uuid:4360905e-8cea-4010-9591-85c3326bd649",
      "resource": {
        "resourceType": "Observation",
        "id": "4360905e-8cea-4010-9591-85c3326bd649",
        "meta": {
          "profile": [
            "http://hl7.org/fhir/StructureDefinition/vitalsigns"
          ]
        },
        "category": [
          {
            "coding": [
              {
                "system": "http://terminology.hl7.org/CodeSystem/observation-category",
                "code": "vital-signs",
                "display": "Vital Signs"
              }
            ]
          }
        ],
        "valueQuantity": {
          "value": 76.8,
          "code": "kg",
          "unit": "kg"
        },
        "text": {
          "status": "generated",
          "div": "<div xmlns=\"http://www.w3.org/1999/xhtml\"><table class=\"hl7__ips\"><tr><th>Vital Sign</th><th>Date</th><th>Measurement</th></tr><tr><td>Body Weight</td><td>15-Jul-2025</td><td>76.8 kg</td></tr></table></div>"
        },
        "status": "final",
        "code": {
          "coding": [
            {
              "code": "29463-7",
              "system": "http://loinc.org",
              "display": "Body Weight"
            }
          ]
        },
        "subject": {
          "reference": "urn:uuid:7d418f0c-5a3a-47eb-90e6-b509fbea37c0",
          "display": "Dorota Juśkiewicz"
        },
        "effectiveDateTime": "2025-07-15"
      }
    },
    {
      "fullUrl": "urn:uuid:43b0f37f-30d0-4625-83fc-b2d6d03d8a95",
      "resource": {
        "resourceType": "Observation",
        "id": "43b0f37f-30d0-4625-83fc-b2d6d03d8a95",
        "meta": {
          "profile": [
            "http://hl7.org/fhir/StructureDefinition/vitalsigns"
          ]
        },
        "category": [
          {
            "coding": [
              {
                "system": "http://terminology.hl7.org/CodeSystem/observation-category",
                "code": "vital-signs",
                "display": "Vital Signs"
              }
            ]
          }
        ],
        "valueQuantity": {
          "value": 28,
          "code": "kg/m2",
          "unit": "kg/m2"
        },
        "text": {
          "status": "generated",
          "div": "<div xmlns=\"http://www.w3.org/1999/xhtml\"><table class=\"hl7__ips\"><tr><th>Vital Sign</th><th>Date</th><th>Measurement</th></tr><tr><td>Body mass index (BMI) [Ratio]</td><td>15-Jul-2025</td><td>28 kg/m2</td></tr></table></div>"
        },
        "status": "final",
        "code": {
          "coding": [
            {
              "code": "39156-5",
              "system": "http://loinc.org",
              "display": "Body mass index (BMI) [Ratio]"
            }
          ]
        },
        "subject": {
          "reference": "urn:uuid:7d418f0c-5a3a-47eb-90e6-b509fbea37c0",
          "display": "Dorota Juśkiewicz"
        },
        "effectiveDateTime": "2025-07-15"
      }
    },
    {
      "fullUrl": "urn:uuid:f684e78f-eba8-4338-82ef-8712fad7f462",
      "resource": {
        "resourceType": "Observation",
        "id": "f684e78f-eba8-4338-82ef-8712fad7f462",
        "meta": {
          "profile": [
            "http://hl7.org/fhir/StructureDefinition/vitalsigns"
          ]
        },
        "category": [
          {
            "coding": [
              {
                "system": "http://terminology.hl7.org/CodeSystem/observation-category",
                "code": "vital-signs",
                "display": "Vital Signs"
              }
            ]
          }
        ],
        "valueQuantity": {
          "value": 71,
          "code": "mm[Hg]",
          "unit": "mm[Hg]"
        },
        "text": {
          "status": "generated",
          "div": "<div xmlns=\"http://www.w3.org/1999/xhtml\"><table class=\"hl7__ips\"><tr><th>Vital Sign</th><th>Date</th><th>Measurement</th></tr><tr><td>Diastolic Blood Pressure</td><td>15-Jul-2025</td><td>71 mm[Hg]</td></tr></table></div>"
        },
        "status": "final",
        "code": {
          "coding": [
            {
              "code": "8462-4",
              "system": "http://loinc.org",
              "display": "Diastolic Blood Pressure"
            }
          ]
        },
        "subject": {
          "reference": "urn:uuid:7d418f0c-5a3a-47eb-90e6-b509fbea37c0",
          "display": "Dorota Juśkiewicz"
        },
        "effectiveDateTime": "2025-07-15"
      }
    },
    {
      "fullUrl": "urn:uuid:d90c4705-1c9b-49b9-95f0-72403ff88012",
      "resource": {
        "resourceType": "Observation",
        "id": "d90c4705-1c9b-49b9-95f0-72403ff88012",
        "meta": {
          "profile": [
            "http://hl7.org/fhir/StructureDefinition/vitalsigns"
          ]
        },
        "category": [
          {
            "coding": [
              {
                "system": "http://terminology.hl7.org/CodeSystem/observation-category",
                "code": "vital-signs",
                "display": "Vital Signs"
              }
            ]
          }
        ],
        "valueQuantity": {
          "value": 111,
          "code": "mm[Hg]",
          "unit": "mm[Hg]"
        },
        "text": {
          "status": "generated",
          "div": "<div xmlns=\"http://www.w3.org/1999/xhtml\"><table class=\"hl7__ips\"><tr><th>Vital Sign</th><th>Date</th><th>Measurement</th></tr><tr><td>Systolic Blood Pressure</td><td>15-Jul-2025</td><td>111 mm[Hg]</td></tr></table></div>"
        },
        "status": "final",
        "code": {
          "coding": [
            {
              "code": "8480-6",
              "system": "http://loinc.org",
              "display": "Systolic Blood Pressure"
            }
          ]
        },
        "subject": {
          "reference": "urn:uuid:7d418f0c-5a3a-47eb-90e6-b509fbea37c0",
          "display": "Dorota Juśkiewicz"
        },
        "effectiveDateTime": "2025-07-15"
      }
    },
    {
      "fullUrl": "urn:uuid:6bd94e6f-967d-4bd6-b64f-784bb796be72",
      "resource": {
        "resourceType": "Observation",
        "id": "6bd94e6f-967d-4bd6-b64f-784bb796be72",
        "meta": {
          "profile": [
            "http://hl7.org/fhir/StructureDefinition/vitalsigns"
          ]
        },
        "category": [
          {
            "coding": [
              {
                "system": "http://terminology.hl7.org/CodeSystem/observation-category",
                "code": "vital-signs",
                "display": "Vital Signs"
              }
            ]
          }
        ],
        "valueQuantity": {
          "value": 72,
          "code": "/min",
          "unit": "/min"
        },
        "text": {
          "status": "generated",
          "div": "<div xmlns=\"http://www.w3.org/1999/xhtml\"><table class=\"hl7__ips\"><tr><th>Vital Sign</th><th>Date</th><th>Measurement</th></tr><tr><td>Heart rate</td><td>15-Jul-2025</td><td>72 /min</td></tr></table></div>"
        },
        "status": "final",
        "code": {
          "coding": [
            {
              "code": "8867-4",
              "system": "http://loinc.org",
              "display": "Heart rate"
            }
          ]
        },
        "subject": {
          "reference": "urn:uuid:7d418f0c-5a3a-47eb-90e6-b509fbea37c0",
          "display": "Dorota Juśkiewicz"
        },
        "effectiveDateTime": "2025-07-15"
      }
    },
    {
      "fullUrl": "urn:uuid:399c273f-3560-4ef3-b740-77e01bf5e229",
      "resource": {
        "resourceType": "Observation",
        "id": "399c273f-3560-4ef3-b740-77e01bf5e229",
        "meta": {
          "profile": [
            "http://hl7.org/fhir/StructureDefinition/vitalsigns"
          ]
        },
        "category": [
          {
            "coding": [
              {
                "system": "http://terminology.hl7.org/CodeSystem/observation-category",
                "code": "vital-signs",
                "display": "Vital Signs"
              }
            ]
          }
        ],
        "valueQuantity": {
          "value": 14,
          "code": "/min",
          "unit": "/min"
        },
        "text": {
          "status": "generated",
          "div": "<div xmlns=\"http://www.w3.org/1999/xhtml\"><table class=\"hl7__ips\"><tr><th>Vital Sign</th><th>Date</th><th>Measurement</th></tr><tr><td>Respiratory rate</td><td>15-Jul-2025</td><td>14 /min</td></tr></table></div>"
        },
        "status": "final",
        "code": {
          "coding": [
            {
              "code": "9279-1",
              "system": "http://loinc.org",
              "display": "Respiratory rate"
            }
          ]
        },
        "subject": {
          "reference": "urn:uuid:7d418f0c-5a3a-47eb-90e6-b509fbea37c0",
          "display": "Dorota Juśkiewicz"
        },
        "effectiveDateTime": "2025-07-15"
      }
    },
    {
      "fullUrl": "urn:uuid:46bb704f-5677-4609-af8f-1f08e3c31fff",
      "resource": {
        "resourceType": "Observation",
        "id": "46bb704f-5677-4609-af8f-1f08e3c31fff",
        "meta": {
          "profile": [
            "http://hl7.org/fhir/StructureDefinition/vitalsigns"
          ]
        },
        "category": [
          {
            "coding": [
              {
                "system": "http://terminology.hl7.org/CodeSystem/observation-category",
                "code": "vital-signs",
                "display": "Vital Signs"
              }
            ]
          }
        ],
        "valueQuantity": {
          "value": 165.5,
          "code": "cm",
          "unit": "cm"
        },
        "text": {
          "status": "generated",
          "div": "<div xmlns=\"http://www.w3.org/1999/xhtml\"><table class=\"hl7__ips\"><tr><th>Vital Sign</th><th>Date</th><th>Measurement</th></tr><tr><td>Body Height</td><td>03-Jun-2025</td><td>165.5 cm</td></tr></table></div>"
        },
        "status": "final",
        "code": {
          "coding": [
            {
              "code": "8302-2",
              "system": "http://loinc.org",
              "display": "Body Height"
            }
          ]
        },
        "subject": {
          "reference": "urn:uuid:7d418f0c-5a3a-47eb-90e6-b509fbea37c0",
          "display": "Dorota Juśkiewicz"
        },
        "effectiveDateTime": "2025-06-03"
      }
    },
    {
      "fullUrl": "urn:uuid:ca813187-988a-4fb6-9aef-75aa15e091fd",
      "resource": {
        "resourceType": "Observation",
        "id": "ca813187-988a-4fb6-9aef-75aa15e091fd",
        "meta": {
          "profile": [
            "http://hl7.org/fhir/StructureDefinition/vitalsigns"
          ]
        },
        "category": [
          {
            "coding": [
              {
                "system": "http://terminology.hl7.org/CodeSystem/observation-category",
                "code": "vital-signs",
                "display": "Vital Signs"
              }
            ]
          }
        ],
        "valueQuantity": {
          "value": 1,
          "code": "{score}",
          "unit": "{score}"
        },
        "text": {
          "status": "generated",
          "div": "<div xmlns=\"http://www.w3.org/1999/xhtml\"><table class=\"hl7__ips\"><tr><th>Vital Sign</th><th>Date</th><th>Measurement</th></tr><tr><td>Pain severity - 0-10 verbal numeric rating [Score] - Reported</td><td>03-Jun-2025</td><td>1 {score}</td></tr></table></div>"
        },
        "status": "final",
        "code": {
          "coding": [
            {
              "code": "72514-3",
              "system": "http://loinc.org",
              "display": "Pain severity - 0-10 verbal numeric rating [Score] - Reported"
            }
          ]
        },
        "subject": {
          "reference": "urn:uuid:7d418f0c-5a3a-47eb-90e6-b509fbea37c0",
          "display": "Dorota Juśkiewicz"
        },
        "effectiveDateTime": "2025-06-03"
      }
    },
    {
      "fullUrl": "urn:uuid:fd1bb18d-4264-4ae8-9cd0-96064658c9ac",
      "resource": {
        "resourceType": "Observation",
        "id": "fd1bb18d-4264-4ae8-9cd0-96064658c9ac",
        "meta": {
          "profile": [
            "http://hl7.org/fhir/StructureDefinition/vitalsigns"
          ]
        },
        "category": [
          {
            "coding": [
              {
                "system": "http://terminology.hl7.org/CodeSystem/observation-category",
                "code": "vital-signs",
                "display": "Vital Signs"
              }
            ]
          }
        ],
        "valueQuantity": {
          "value": 76.8,
          "code": "kg",
          "unit": "kg"
        },
        "text": {
          "status": "generated",
          "div": "<div xmlns=\"http://www.w3.org/1999/xhtml\"><table class=\"hl7__ips\"><tr><th>Vital Sign</th><th>Date</th><th>Measurement</th></tr><tr><td>Body Weight</td><td>03-Jun-2025</td><td>76.8 kg</td></tr></table></div>"
        },
        "status": "final",
        "code": {
          "coding": [
            {
              "code": "29463-7",
              "system": "http://loinc.org",
              "display": "Body Weight"
            }
          ]
        },
        "subject": {
          "reference": "urn:uuid:7d418f0c-5a3a-47eb-90e6-b509fbea37c0",
          "display": "Dorota Juśkiewicz"
        },
        "effectiveDateTime": "2025-06-03"
      }
    },
    {
      "fullUrl": "urn:uuid:467c74b1-f500-4c11-93bf-e0851409610f",
      "resource": {
        "resourceType": "Observation",
        "id": "467c74b1-f500-4c11-93bf-e0851409610f",
        "meta": {
          "profile": [
            "http://hl7.org/fhir/StructureDefinition/vitalsigns"
          ]
        },
        "category": [
          {
            "coding": [
              {
                "system": "http://terminology.hl7.org/CodeSystem/observation-category",
                "code": "vital-signs",
                "display": "Vital Signs"
              }
            ]
          }
        ],
        "valueQuantity": {
          "value": 28,
          "code": "kg/m2",
          "unit": "kg/m2"
        },
        "text": {
          "status": "generated",
          "div": "<div xmlns=\"http://www.w3.org/1999/xhtml\"><table class=\"hl7__ips\"><tr><th>Vital Sign</th><th>Date</th><th>Measurement</th></tr><tr><td>Body mass index (BMI) [Ratio]</td><td>03-Jun-2025</td><td>28 kg/m2</td></tr></table></div>"
        },
        "status": "final",
        "code": {
          "coding": [
            {
              "code": "39156-5",
              "system": "http://loinc.org",
              "display": "Body mass index (BMI) [Ratio]"
            }
          ]
        },
        "subject": {
          "reference": "urn:uuid:7d418f0c-5a3a-47eb-90e6-b509fbea37c0",
          "display": "Dorota Juśkiewicz"
        },
        "effectiveDateTime": "2025-06-03"
      }
    },
    {
      "fullUrl": "urn:uuid:4ec92134-d2d1-4532-ad91-16442ecc0d83",
      "resource": {
        "resourceType": "Observation",
        "id": "4ec92134-d2d1-4532-ad91-16442ecc0d83",
        "meta": {
          "profile": [
            "http://hl7.org/fhir/StructureDefinition/vitalsigns"
          ]
        },
        "category": [
          {
            "coding": [
              {
                "system": "http://terminology.hl7.org/CodeSystem/observation-category",
                "code": "vital-signs",
                "display": "Vital Signs"
              }
            ]
          }
        ],
        "valueQuantity": {
          "value": 68,
          "code": "mm[Hg]",
          "unit": "mm[Hg]"
        },
        "text": {
          "status": "generated",
          "div": "<div xmlns=\"http://www.w3.org/1999/xhtml\"><table class=\"hl7__ips\"><tr><th>Vital Sign</th><th>Date</th><th>Measurement</th></tr><tr><td>Diastolic Blood Pressure</td><td>03-Jun-2025</td><td>68 mm[Hg]</td></tr></table></div>"
        },
        "status": "final",
        "code": {
          "coding": [
            {
              "code": "8462-4",
              "system": "http://loinc.org",
              "display": "Diastolic Blood Pressure"
            }
          ]
        },
        "subject": {
          "reference": "urn:uuid:7d418f0c-5a3a-47eb-90e6-b509fbea37c0",
          "display": "Dorota Juśkiewicz"
        },
        "effectiveDateTime": "2025-06-03"
      }
    },
    {
      "fullUrl": "urn:uuid:353ff053-8fbc-4fb3-8ad0-0cb15371b096",
      "resource": {
        "resourceType": "Observation",
        "id": "353ff053-8fbc-4fb3-8ad0-0cb15371b096",
        "meta": {
          "profile": [
            "http://hl7.org/fhir/StructureDefinition/vitalsigns"
          ]
        },
        "category": [
          {
            "coding": [
              {
                "system": "http://terminology.hl7.org/CodeSystem/observation-category",
                "code": "vital-signs",
                "display": "Vital Signs"
              }
            ]
          }
        ],
        "valueQuantity": {
          "value": 110,
          "code": "mm[Hg]",
          "unit": "mm[Hg]"
        },
        "text": {
          "status": "generated",
          "div": "<div xmlns=\"http://www.w3.org/1999/xhtml\"><table class=\"hl7__ips\"><tr><th>Vital Sign</th><th>Date</th><th>Measurement</th></tr><tr><td>Systolic Blood Pressure</td><td>03-Jun-2025</td><td>110 mm[Hg]</td></tr></table></div>"
        },
        "status": "final",
        "code": {
          "coding": [
            {
              "code": "8480-6",
              "system": "http://loinc.org",
              "display": "Systolic Blood Pressure"
            }
          ]
        },
        "subject": {
          "reference": "urn:uuid:7d418f0c-5a3a-47eb-90e6-b509fbea37c0",
          "display": "Dorota Juśkiewicz"
        },
        "effectiveDateTime": "2025-06-03"
      }
    },
    {
      "fullUrl": "urn:uuid:972a792e-e327-414d-b32a-4c913edcccb5",
      "resource": {
        "resourceType": "Observation",
        "id": "972a792e-e327-414d-b32a-4c913edcccb5",
        "meta": {
          "profile": [
            "http://hl7.org/fhir/StructureDefinition/vitalsigns"
          ]
        },
        "category": [
          {
            "coding": [
              {
                "system": "http://terminology.hl7.org/CodeSystem/observation-category",
                "code": "vital-signs",
                "display": "Vital Signs"
              }
            ]
          }
        ],
        "valueQuantity": {
          "value": 62,
          "code": "/min",
          "unit": "/min"
        },
        "text": {
          "status": "generated",
          "div": "<div xmlns=\"http://www.w3.org/1999/xhtml\"><table class=\"hl7__ips\"><tr><th>Vital Sign</th><th>Date</th><th>Measurement</th></tr><tr><td>Heart rate</td><td>03-Jun-2025</td><td>62 /min</td></tr></table></div>"
        },
        "status": "final",
        "code": {
          "coding": [
            {
              "code": "8867-4",
              "system": "http://loinc.org",
              "display": "Heart rate"
            }
          ]
        },
        "subject": {
          "reference": "urn:uuid:7d418f0c-5a3a-47eb-90e6-b509fbea37c0",
          "display": "Dorota Juśkiewicz"
        },
        "effectiveDateTime": "2025-06-03"
      }
    },
    {
      "fullUrl": "urn:uuid:9d345ff1-de25-4b93-87a5-c5cc2757b9b4",
      "resource": {
        "resourceType": "Observation",
        "id": "9d345ff1-de25-4b93-87a5-c5cc2757b9b4",
        "meta": {
          "profile": [
            "http://hl7.org/fhir/StructureDefinition/vitalsigns"
          ]
        },
        "category": [
          {
            "coding": [
              {
                "system": "http://terminology.hl7.org/CodeSystem/observation-category",
                "code": "vital-signs",
                "display": "Vital Signs"
              }
            ]
          }
        ],
        "valueQuantity": {
          "value": 15,
          "code": "/min",
          "unit": "/min"
        },
        "text": {
          "status": "generated",
          "div": "<div xmlns=\"http://www.w3.org/1999/xhtml\"><table class=\"hl7__ips\"><tr><th>Vital Sign</th><th>Date</th><th>Measurement</th></tr><tr><td>Respiratory rate</td><td>03-Jun-2025</td><td>15 /min</td></tr></table></div>"
        },
        "status": "final",
        "code": {
          "coding": [
            {
              "code": "9279-1",
              "system": "http://loinc.org",
              "display": "Respiratory rate"
            }
          ]
        },
        "subject": {
          "reference": "urn:uuid:7d418f0c-5a3a-47eb-90e6-b509fbea37c0",
          "display": "Dorota Juśkiewicz"
        },
        "effectiveDateTime": "2025-06-03"
      }
    },
    {
      "fullUrl": "urn:uuid:453746c5-3b25-4815-8160-44e12371bd07",
      "resource": {
        "resourceType": "Observation",
        "id": "453746c5-3b25-4815-8160-44e12371bd07",
        "meta": {
          "profile": [
            "http://hl7.eu/fhir/laboratory/StructureDefinition/Observation-resultslab-eu-lab"
          ]
        },
        "performer": [
          {
            "display": "The Central European Lab"
          }
        ],
        "category": [
          {
            "coding": [
              {
                "system": "http://terminology.hl7.org/CodeSystem/observation-category",
                "code": "laboratory"
              }
            ]
          }
        ],
        "code": {
          "coding": [
            {
              "code": "2345-7",
              "system": "http://loinc.org",
              "display": "Glucose [Mass/volume] in Serum or Plasma"
            }
          ],
          "text": "Glucose [Mass/volume] in Serum or Plasma"
        },
        "valueQuantity": {
          "system": "http://unitsofmeasure.org",
          "value": 98.4,
          "unit": "mg/dL",
          "code": "mg/dL"
        },
        "referenceRange": [
          {
            "low": {
              "value": 70,
              "code": "mg/dL",
              "system": "http://unitsofmeasure.org"
            }
          },
          {
            "high": {
              "value": 140,
              "code": "mg/dL",
              "system": "http://unitsofmeasure.org"
            }
          }
        ],
        "text": {
          "status": "generated",
          "div": "<div xmlns=\"http://www.w3.org/1999/xhtml\"><table class=\"hl7__eu__lab__report\"><tr><th>Test</th><th>16-Jul-2025</th><th>Reference&#xA0;Range</th><th>Unit</th></tr><tr><td>Glucose [Mass/volume] in Serum or Plasma</td><td>98.4</td><td>70 - 140</td><td></td><td>mg/dL</td></tr></table></div>"
        },
        "status": "final",
        "subject": {
          "reference": "urn:uuid:7d418f0c-5a3a-47eb-90e6-b509fbea37c0",
          "display": "Dorota Juśkiewicz"
        },
        "effectiveDateTime": "2025-07-15T23:50:08Z"
      }
    },
    {
      "fullUrl": "urn:uuid:717dbe23-dee0-492d-8d86-88b40ba006cb",
      "resource": {
        "resourceType": "Observation",
        "id": "717dbe23-dee0-492d-8d86-88b40ba006cb",
        "meta": {
          "profile": [
            "http://hl7.eu/fhir/laboratory/StructureDefinition/Observation-resultslab-eu-lab"
          ]
        },
        "performer": [
          {
            "display": "The Central European Lab"
          }
        ],
        "category": [
          {
            "coding": [
              {
                "system": "http://terminology.hl7.org/CodeSystem/observation-category",
                "code": "laboratory"
              }
            ]
          }
        ],
        "code": {
          "coding": [
            {
              "code": "3094-0",
              "system": "http://loinc.org",
              "display": "Urea nitrogen [Mass/volume] in Serum or Plasma"
            }
          ],
          "text": "Urea nitrogen [Mass/volume] in Serum or Plasma"
        },
        "valueQuantity": {
          "system": "http://unitsofmeasure.org",
          "value": 13.8,
          "unit": "mg/dL",
          "code": "mg/dL"
        },
        "referenceRange": [
          {
            "low": {
              "value": 7,
              "code": "mg/dL",
              "system": "http://unitsofmeasure.org"
            }
          },
          {
            "high": {
              "value": 25,
              "code": "mg/dL",
              "system": "http://unitsofmeasure.org"
            }
          }
        ],
        "text": {
          "status": "generated",
          "div": "<div xmlns=\"http://www.w3.org/1999/xhtml\"><table class=\"hl7__eu__lab__report\"><tr><th>Test</th><th>16-Jul-2025</th><th>Reference&#xA0;Range</th><th>Unit</th></tr><tr><td>Urea nitrogen [Mass/volume] in Serum or Plasma</td><td>13.8</td><td>7 - 25</td><td></td><td>mg/dL</td></tr></table></div>"
        },
        "status": "final",
        "subject": {
          "reference": "urn:uuid:7d418f0c-5a3a-47eb-90e6-b509fbea37c0",
          "display": "Dorota Juśkiewicz"
        },
        "effectiveDateTime": "2025-07-15T23:50:08Z"
      }
    },
    {
      "fullUrl": "urn:uuid:1659a6cc-b933-4d8f-99cb-586d77f6b172",
      "resource": {
        "resourceType": "Observation",
        "id": "1659a6cc-b933-4d8f-99cb-586d77f6b172",
        "meta": {
          "profile": [
            "http://hl7.eu/fhir/laboratory/StructureDefinition/Observation-resultslab-eu-lab"
          ]
        },
        "performer": [
          {
            "display": "The Central European Lab"
          }
        ],
        "category": [
          {
            "coding": [
              {
                "system": "http://terminology.hl7.org/CodeSystem/observation-category",
                "code": "laboratory"
              }
            ]
          }
        ],
        "code": {
          "coding": [
            {
              "code": "2160-0",
              "system": "http://loinc.org",
              "display": "Creatinine [Mass/volume] in Serum or Plasma"
            }
          ],
          "text": "Creatinine [Mass/volume] in Serum or Plasma"
        },
        "valueQuantity": {
          "system": "http://unitsofmeasure.org",
          "value": 2.1,
          "unit": "mg/dL",
          "code": "mg/dL"
        },
        "referenceRange": [
          {
            "low": {
              "value": 0.6,
              "code": "mg/dL",
              "system": "http://unitsofmeasure.org"
            }
          },
          {
            "high": {
              "value": 1.3,
              "code": "mg/dL",
              "system": "http://unitsofmeasure.org"
            }
          }
        ],
        "interpretation": [
          {
            "coding": [
              {
                "code": "H",
                "system": "http://terminology.hl7.org/CodeSystem/v3-ObservationInterpretation",
                "display": "High"
              }
            ]
          }
        ],
        "text": {
          "status": "generated",
          "div": "<div xmlns=\"http://www.w3.org/1999/xhtml\"><table class=\"hl7__eu__lab__report\"><tr><th>Test</th><th>16-Jul-2025</th><th>Reference&#xA0;Range</th><th>Unit</th></tr><tr><td>Creatinine [Mass/volume] in Serum or Plasma</td><td>2.1</td><td>0.6 - 1.3</td><td>H</td><td>mg/dL</td></tr></table></div>"
        },
        "status": "final",
        "subject": {
          "reference": "urn:uuid:7d418f0c-5a3a-47eb-90e6-b509fbea37c0",
          "display": "Dorota Juśkiewicz"
        },
        "effectiveDateTime": "2025-07-15T23:50:08Z"
      }
    },
    {
      "fullUrl": "urn:uuid:c845b9ca-e506-4340-b025-a579241e2b0a",
      "resource": {
        "resourceType": "Observation",
        "id": "c845b9ca-e506-4340-b025-a579241e2b0a",
        "meta": {
          "profile": [
            "http://hl7.eu/fhir/laboratory/StructureDefinition/Observation-resultslab-eu-lab"
          ]
        },
        "performer": [
          {
            "display": "The Central European Lab"
          }
        ],
        "category": [
          {
            "coding": [
              {
                "system": "http://terminology.hl7.org/CodeSystem/observation-category",
                "code": "laboratory"
              }
            ]
          }
        ],
        "code": {
          "coding": [
            {
              "code": "17861-6",
              "system": "http://loinc.org",
              "display": "Calcium [Mass/volume] in Serum or Plasma"
            }
          ],
          "text": "Calcium [Mass/volume] in Serum or Plasma"
        },
        "valueQuantity": {
          "system": "http://unitsofmeasure.org",
          "value": 9.3,
          "unit": "mg/dL",
          "code": "mg/dL"
        },
        "referenceRange": [
          {
            "low": {
              "value": 8.5,
              "code": "mg/dL",
              "system": "http://unitsofmeasure.org"
            }
          },
          {
            "high": {
              "value": 10.4,
              "code": "mg/dL",
              "system": "http://unitsofmeasure.org"
            }
          }
        ],
        "text": {
          "status": "generated",
          "div": "<div xmlns=\"http://www.w3.org/1999/xhtml\"><table class=\"hl7__eu__lab__report\"><tr><th>Test</th><th>16-Jul-2025</th><th>Reference&#xA0;Range</th><th>Unit</th></tr><tr><td>Calcium [Mass/volume] in Serum or Plasma</td><td>9.3</td><td>8.5 - 10.4</td><td></td><td>mg/dL</td></tr></table></div>"
        },
        "status": "final",
        "subject": {
          "reference": "urn:uuid:7d418f0c-5a3a-47eb-90e6-b509fbea37c0",
          "display": "Dorota Juśkiewicz"
        },
        "effectiveDateTime": "2025-07-15T23:50:08Z"
      }
    },
    {
      "fullUrl": "urn:uuid:710aeaea-e0b8-4f50-95ef-4882237b911d",
      "resource": {
        "resourceType": "Observation",
        "id": "710aeaea-e0b8-4f50-95ef-4882237b911d",
        "meta": {
          "profile": [
            "http://hl7.eu/fhir/laboratory/StructureDefinition/Observation-resultslab-eu-lab"
          ]
        },
        "performer": [
          {
            "display": "The Central European Lab"
          }
        ],
        "category": [
          {
            "coding": [
              {
                "system": "http://terminology.hl7.org/CodeSystem/observation-category",
                "code": "laboratory"
              }
            ]
          }
        ],
        "code": {
          "coding": [
            {
              "code": "2951-2",
              "system": "http://loinc.org",
              "display": "Sodium [Moles/volume] in Serum or Plasma"
            }
          ],
          "text": "Sodium [Moles/volume] in Serum or Plasma"
        },
        "valueQuantity": {
          "system": "http://unitsofmeasure.org",
          "value": 142.5,
          "unit": "mmol/L",
          "code": "mmol/L"
        },
        "referenceRange": [
          {
            "low": {
              "value": 135,
              "code": "mmol/L",
              "system": "http://unitsofmeasure.org"
            }
          },
          {
            "high": {
              "value": 145,
              "code": "mmol/L",
              "system": "http://unitsofmeasure.org"
            }
          }
        ],
        "text": {
          "status": "generated",
          "div": "<div xmlns=\"http://www.w3.org/1999/xhtml\"><table class=\"hl7__eu__lab__report\"><tr><th>Test</th><th>16-Jul-2025</th><th>Reference&#xA0;Range</th><th>Unit</th></tr><tr><td>Sodium [Moles/volume] in Serum or Plasma</td><td>142.5</td><td>135 - 145</td><td></td><td>mmol/L</td></tr></table></div>"
        },
        "status": "final",
        "subject": {
          "reference": "urn:uuid:7d418f0c-5a3a-47eb-90e6-b509fbea37c0",
          "display": "Dorota Juśkiewicz"
        },
        "effectiveDateTime": "2025-07-15T23:50:08Z"
      }
    },
    {
      "fullUrl": "urn:uuid:79b28c36-c60d-4f09-b4b2-aadcc069d4dc",
      "resource": {
        "resourceType": "Observation",
        "id": "79b28c36-c60d-4f09-b4b2-aadcc069d4dc",
        "meta": {
          "profile": [
            "http://hl7.eu/fhir/laboratory/StructureDefinition/Observation-resultslab-eu-lab"
          ]
        },
        "performer": [
          {
            "display": "The Central European Lab"
          }
        ],
        "category": [
          {
            "coding": [
              {
                "system": "http://terminology.hl7.org/CodeSystem/observation-category",
                "code": "laboratory"
              }
            ]
          }
        ],
        "code": {
          "coding": [
            {
              "code": "2823-3",
              "system": "http://loinc.org",
              "display": "Potassium [Moles/volume] in Serum or Plasma"
            }
          ],
          "text": "Potassium [Moles/volume] in Serum or Plasma"
        },
        "valueQuantity": {
          "system": "http://unitsofmeasure.org",
          "value": 5,
          "unit": "mmol/L",
          "code": "mmol/L"
        },
        "referenceRange": [
          {
            "low": {
              "value": 3.5,
              "code": "mmol/L",
              "system": "http://unitsofmeasure.org"
            }
          },
          {
            "high": {
              "value": 5.1,
              "code": "mmol/L",
              "system": "http://unitsofmeasure.org"
            }
          }
        ],
        "text": {
          "status": "generated",
          "div": "<div xmlns=\"http://www.w3.org/1999/xhtml\"><table class=\"hl7__eu__lab__report\"><tr><th>Test</th><th>16-Jul-2025</th><th>Reference&#xA0;Range</th><th>Unit</th></tr><tr><td>Potassium [Moles/volume] in Serum or Plasma</td><td>5.0</td><td>3.5 - 5.1</td><td></td><td>mmol/L</td></tr></table></div>"
        },
        "status": "final",
        "subject": {
          "reference": "urn:uuid:7d418f0c-5a3a-47eb-90e6-b509fbea37c0",
          "display": "Dorota Juśkiewicz"
        },
        "effectiveDateTime": "2025-07-15T23:50:08Z"
      }
    },
    {
      "fullUrl": "urn:uuid:149f7510-45f3-44d3-b448-22ccae2439cb",
      "resource": {
        "resourceType": "Observation",
        "id": "149f7510-45f3-44d3-b448-22ccae2439cb",
        "meta": {
          "profile": [
            "http://hl7.eu/fhir/laboratory/StructureDefinition/Observation-resultslab-eu-lab"
          ]
        },
        "performer": [
          {
            "display": "The Central European Lab"
          }
        ],
        "category": [
          {
            "coding": [
              {
                "system": "http://terminology.hl7.org/CodeSystem/observation-category",
                "code": "laboratory"
              }
            ]
          }
        ],
        "code": {
          "coding": [
            {
              "code": "2075-0",
              "system": "http://loinc.org",
              "display": "Chloride [Moles/volume] in Serum or Plasma"
            }
          ],
          "text": "Chloride [Moles/volume] in Serum or Plasma"
        },
        "valueQuantity": {
          "system": "http://unitsofmeasure.org",
          "value": 101.7,
          "unit": "mmol/L",
          "code": "mmol/L"
        },
        "referenceRange": [
          {
            "low": {
              "value": 98,
              "code": "mmol/L",
              "system": "http://unitsofmeasure.org"
            }
          },
          {
            "high": {
              "value": 110,
              "code": "mmol/L",
              "system": "http://unitsofmeasure.org"
            }
          }
        ],
        "text": {
          "status": "generated",
          "div": "<div xmlns=\"http://www.w3.org/1999/xhtml\"><table class=\"hl7__eu__lab__report\"><tr><th>Test</th><th>16-Jul-2025</th><th>Reference&#xA0;Range</th><th>Unit</th></tr><tr><td>Chloride [Moles/volume] in Serum or Plasma</td><td>101.7</td><td>98 - 110</td><td></td><td>mmol/L</td></tr></table></div>"
        },
        "status": "final",
        "subject": {
          "reference": "urn:uuid:7d418f0c-5a3a-47eb-90e6-b509fbea37c0",
          "display": "Dorota Juśkiewicz"
        },
        "effectiveDateTime": "2025-07-15T23:50:08Z"
      }
    },
    {
      "fullUrl": "urn:uuid:0a345a38-70a0-41b8-aff9-83330c374f98",
      "resource": {
        "resourceType": "Observation",
        "id": "0a345a38-70a0-41b8-aff9-83330c374f98",
        "meta": {
          "profile": [
            "http://hl7.eu/fhir/laboratory/StructureDefinition/Observation-resultslab-eu-lab"
          ]
        },
        "performer": [
          {
            "display": "The Central European Lab"
          }
        ],
        "category": [
          {
            "coding": [
              {
                "system": "http://terminology.hl7.org/CodeSystem/observation-category",
                "code": "laboratory"
              }
            ]
          }
        ],
        "code": {
          "coding": [
            {
              "code": "2028-9",
              "system": "http://loinc.org",
              "display": "Carbon dioxide, total [Moles/volume] in Serum or Plasma"
            }
          ],
          "text": "Carbon dioxide, total [Moles/volume] in Serum or Plasma"
        },
        "valueQuantity": {
          "system": "http://unitsofmeasure.org",
          "value": 20.9,
          "unit": "mmol/L",
          "code": "mmol/L"
        },
        "referenceRange": [
          {
            "low": {
              "value": 22,
              "code": "mmol/L",
              "system": "http://unitsofmeasure.org"
            }
          },
          {
            "high": {
              "value": 29,
              "code": "mmol/L",
              "system": "http://unitsofmeasure.org"
            }
          }
        ],
        "interpretation": [
          {
            "coding": [
              {
                "code": "L",
                "system": "http://terminology.hl7.org/CodeSystem/v3-ObservationInterpretation",
                "display": "Low"
              }
            ]
          }
        ],
        "text": {
          "status": "generated",
          "div": "<div xmlns=\"http://www.w3.org/1999/xhtml\"><table class=\"hl7__eu__lab__report\"><tr><th>Test</th><th>16-Jul-2025</th><th>Reference&#xA0;Range</th><th>Unit</th></tr><tr><td>Carbon dioxide, total [Moles/volume] in Serum or Plasma</td><td>20.9</td><td>22 - 29</td><td>L</td><td>mmol/L</td></tr></table></div>"
        },
        "status": "final",
        "subject": {
          "reference": "urn:uuid:7d418f0c-5a3a-47eb-90e6-b509fbea37c0",
          "display": "Dorota Juśkiewicz"
        },
        "effectiveDateTime": "2025-07-15T23:50:08Z"
      }
    },
    {
      "fullUrl": "urn:uuid:263275cc-434c-41fd-bd37-21bf96730c92",
      "resource": {
        "resourceType": "Observation",
        "id": "263275cc-434c-41fd-bd37-21bf96730c92",
        "meta": {
          "profile": [
            "http://hl7.eu/fhir/laboratory/StructureDefinition/Observation-resultslab-eu-lab"
          ]
        },
        "performer": [
          {
            "display": "The Central European Lab"
          }
        ],
        "category": [
          {
            "coding": [
              {
                "system": "http://terminology.hl7.org/CodeSystem/observation-category",
                "code": "laboratory"
              }
            ]
          }
        ],
        "code": {
          "coding": [
            {
              "code": "5767-9",
              "system": "http://loinc.org",
              "display": "Appearance of Urine"
            }
          ],
          "text": "Appearance of Urine"
        },
        "text": {
          "status": "generated",
          "div": "<div xmlns=\"http://www.w3.org/1999/xhtml\"><table class=\"hl7__eu__lab__report\"><tr><th>Test</th><th>16-Jul-2025</th><th>Reference&#xA0;Range</th><th>Unit</th></tr><tr><td>Appearance of Urine</td></tr></table></div>"
        },
        "status": "final",
        "subject": {
          "reference": "urn:uuid:7d418f0c-5a3a-47eb-90e6-b509fbea37c0",
          "display": "Dorota Juśkiewicz"
        },
        "effectiveDateTime": "2025-07-15T23:50:08Z"
      }
    },
    {
      "fullUrl": "urn:uuid:c7eecaa6-fa47-470d-8fa2-910bdf85b211",
      "resource": {
        "resourceType": "Observation",
        "id": "c7eecaa6-fa47-470d-8fa2-910bdf85b211",
        "meta": {
          "profile": [
            "http://hl7.eu/fhir/laboratory/StructureDefinition/Observation-resultslab-eu-lab"
          ]
        },
        "performer": [
          {
            "display": "The Central European Lab"
          }
        ],
        "category": [
          {
            "coding": [
              {
                "system": "http://terminology.hl7.org/CodeSystem/observation-category",
                "code": "laboratory"
              }
            ]
          }
        ],
        "code": {
          "coding": [
            {
              "code": "34533-0",
              "system": "http://loinc.org",
              "display": "Odor of Urine"
            }
          ],
          "text": "Odor of Urine"
        },
        "text": {
          "status": "generated",
          "div": "<div xmlns=\"http://www.w3.org/1999/xhtml\"><table class=\"hl7__eu__lab__report\"><tr><th>Test</th><th>16-Jul-2025</th><th>Reference&#xA0;Range</th><th>Unit</th></tr><tr><td>Odor of Urine</td></tr></table></div>"
        },
        "status": "final",
        "subject": {
          "reference": "urn:uuid:7d418f0c-5a3a-47eb-90e6-b509fbea37c0",
          "display": "Dorota Juśkiewicz"
        },
        "effectiveDateTime": "2025-07-15T23:50:08Z"
      }
    },
    {
      "fullUrl": "urn:uuid:b2648ccc-464b-4789-aceb-6c9f963f17e5",
      "resource": {
        "resourceType": "Observation",
        "id": "b2648ccc-464b-4789-aceb-6c9f963f17e5",
        "meta": {
          "profile": [
            "http://hl7.eu/fhir/laboratory/StructureDefinition/Observation-resultslab-eu-lab"
          ]
        },
        "performer": [
          {
            "display": "The Central European Lab"
          }
        ],
        "category": [
          {
            "coding": [
              {
                "system": "http://terminology.hl7.org/CodeSystem/observation-category",
                "code": "laboratory"
              }
            ]
          }
        ],
        "code": {
          "coding": [
            {
              "code": "32167-9",
              "system": "http://loinc.org",
              "display": "Clarity of Urine"
            }
          ],
          "text": "Clarity of Urine"
        },
        "text": {
          "status": "generated",
          "div": "<div xmlns=\"http://www.w3.org/1999/xhtml\"><table class=\"hl7__eu__lab__report\"><tr><th>Test</th><th>16-Jul-2025</th><th>Reference&#xA0;Range</th><th>Unit</th></tr><tr><td>Clarity of Urine</td></tr></table></div>"
        },
        "status": "final",
        "subject": {
          "reference": "urn:uuid:7d418f0c-5a3a-47eb-90e6-b509fbea37c0",
          "display": "Dorota Juśkiewicz"
        },
        "effectiveDateTime": "2025-07-15T23:50:08Z"
      }
    },
    {
      "fullUrl": "urn:uuid:18bd6a08-e23f-46a2-8736-3d212641ac74",
      "resource": {
        "resourceType": "Observation",
        "id": "18bd6a08-e23f-46a2-8736-3d212641ac74",
        "meta": {
          "profile": [
            "http://hl7.eu/fhir/laboratory/StructureDefinition/Observation-resultslab-eu-lab"
          ]
        },
        "performer": [
          {
            "display": "The Central European Lab"
          }
        ],
        "category": [
          {
            "coding": [
              {
                "system": "http://terminology.hl7.org/CodeSystem/observation-category",
                "code": "laboratory"
              }
            ]
          }
        ],
        "code": {
          "coding": [
            {
              "code": "5778-6",
              "system": "http://loinc.org",
              "display": "Color of Urine"
            }
          ],
          "text": "Color of Urine"
        },
        "text": {
          "status": "generated",
          "div": "<div xmlns=\"http://www.w3.org/1999/xhtml\"><table class=\"hl7__eu__lab__report\"><tr><th>Test</th><th>16-Jul-2025</th><th>Reference&#xA0;Range</th><th>Unit</th></tr><tr><td>Color of Urine</td></tr></table></div>"
        },
        "status": "final",
        "subject": {
          "reference": "urn:uuid:7d418f0c-5a3a-47eb-90e6-b509fbea37c0",
          "display": "Dorota Juśkiewicz"
        },
        "effectiveDateTime": "2025-07-15T23:50:08Z"
      }
    },
    {
      "fullUrl": "urn:uuid:807f5923-06da-4aae-b0e4-3ed48dddf359",
      "resource": {
        "resourceType": "Observation",
        "id": "807f5923-06da-4aae-b0e4-3ed48dddf359",
        "meta": {
          "profile": [
            "http://hl7.eu/fhir/laboratory/StructureDefinition/Observation-resultslab-eu-lab"
          ]
        },
        "performer": [
          {
            "display": "The Central European Lab"
          }
        ],
        "category": [
          {
            "coding": [
              {
                "system": "http://terminology.hl7.org/CodeSystem/observation-category",
                "code": "laboratory"
              }
            ]
          }
        ],
        "code": {
          "coding": [
            {
              "code": "5792-7",
              "system": "http://loinc.org",
              "display": "Glucose [Mass/volume] in Urine by Test strip"
            }
          ],
          "text": "Glucose [Mass/volume] in Urine by Test strip"
        },
        "valueQuantity": {
          "system": "http://unitsofmeasure.org",
          "value": 1.5,
          "unit": "mg/dL",
          "code": "mg/dL"
        },
        "referenceRange": [
          {
            "low": {
              "value": 0.8,
              "code": "mg/dL",
              "system": "http://unitsofmeasure.org"
            }
          },
          {
            "high": {
              "value": 0,
              "code": "mg/dL",
              "system": "http://unitsofmeasure.org"
            }
          }
        ],
        "interpretation": [
          {
            "coding": [
              {
                "code": "H",
                "system": "http://terminology.hl7.org/CodeSystem/v3-ObservationInterpretation",
                "display": "High"
              }
            ]
          }
        ],
        "text": {
          "status": "generated",
          "div": "<div xmlns=\"http://www.w3.org/1999/xhtml\"><table class=\"hl7__eu__lab__report\"><tr><th>Test</th><th>16-Jul-2025</th><th>Reference&#xA0;Range</th><th>Unit</th></tr><tr><td>Glucose [Mass/volume] in Urine by Test strip</td><td>1.5</td><td>0.8 - 0</td><td>H</td><td>mg/dL</td></tr></table></div>"
        },
        "status": "final",
        "subject": {
          "reference": "urn:uuid:7d418f0c-5a3a-47eb-90e6-b509fbea37c0",
          "display": "Dorota Juśkiewicz"
        },
        "effectiveDateTime": "2025-07-15T23:50:08Z"
      }
    },
    {
      "fullUrl": "urn:uuid:c6e94265-a536-4a8d-b076-eac850c90862",
      "resource": {
        "resourceType": "Observation",
        "id": "c6e94265-a536-4a8d-b076-eac850c90862",
        "meta": {
          "profile": [
            "http://hl7.eu/fhir/laboratory/StructureDefinition/Observation-resultslab-eu-lab"
          ]
        },
        "performer": [
          {
            "display": "The Central European Lab"
          }
        ],
        "category": [
          {
            "coding": [
              {
                "system": "http://terminology.hl7.org/CodeSystem/observation-category",
                "code": "laboratory"
              }
            ]
          }
        ],
        "code": {
          "coding": [
            {
              "code": "25428-4",
              "system": "http://loinc.org",
              "display": "Glucose [Presence] in Urine by Test strip"
            }
          ],
          "text": "Glucose [Presence] in Urine by Test strip"
        },
        "text": {
          "status": "generated",
          "div": "<div xmlns=\"http://www.w3.org/1999/xhtml\"><table class=\"hl7__eu__lab__report\"><tr><th>Test</th><th>16-Jul-2025</th><th>Reference&#xA0;Range</th><th>Unit</th></tr><tr><td>Glucose [Presence] in Urine by Test strip</td></tr></table></div>"
        },
        "status": "final",
        "subject": {
          "reference": "urn:uuid:7d418f0c-5a3a-47eb-90e6-b509fbea37c0",
          "display": "Dorota Juśkiewicz"
        },
        "effectiveDateTime": "2025-07-15T23:50:08Z"
      }
    },
    {
      "fullUrl": "urn:uuid:01758a20-a15f-4f7e-b725-7b308bae052b",
      "resource": {
        "resourceType": "Observation",
        "id": "01758a20-a15f-4f7e-b725-7b308bae052b",
        "meta": {
          "profile": [
            "http://hl7.eu/fhir/laboratory/StructureDefinition/Observation-resultslab-eu-lab"
          ]
        },
        "performer": [
          {
            "display": "The Central European Lab"
          }
        ],
        "category": [
          {
            "coding": [
              {
                "system": "http://terminology.hl7.org/CodeSystem/observation-category",
                "code": "laboratory"
              }
            ]
          }
        ],
        "code": {
          "coding": [
            {
              "code": "20505-4",
              "system": "http://loinc.org",
              "display": "Bilirubin.total [Mass/volume] in Urine by Test strip"
            }
          ],
          "text": "Bilirubin.total [Mass/volume] in Urine by Test strip"
        },
        "valueQuantity": {
          "system": "http://unitsofmeasure.org",
          "value": 0.3,
          "unit": "mg/dL",
          "code": "mg/dL"
        },
        "referenceRange": [
          {
            "low": {
              "value": 0,
              "code": "mg/dL",
              "system": "http://unitsofmeasure.org"
            }
          },
          {
            "high": {
              "value": 1,
              "code": "mg/dL",
              "system": "http://unitsofmeasure.org"
            }
          }
        ],
        "text": {
          "status": "generated",
          "div": "<div xmlns=\"http://www.w3.org/1999/xhtml\"><table class=\"hl7__eu__lab__report\"><tr><th>Test</th><th>16-Jul-2025</th><th>Reference&#xA0;Range</th><th>Unit</th></tr><tr><td>Bilirubin.total [Mass/volume] in Urine by Test strip</td><td>0.3</td><td>0 - 1</td><td></td><td>mg/dL</td></tr></table></div>"
        },
        "status": "final",
        "subject": {
          "reference": "urn:uuid:7d418f0c-5a3a-47eb-90e6-b509fbea37c0",
          "display": "Dorota Juśkiewicz"
        },
        "effectiveDateTime": "2025-07-15T23:50:08Z"
      }
    },
    {
      "fullUrl": "urn:uuid:562e8d9b-c720-470e-af23-5af23975c7dd",
      "resource": {
        "resourceType": "Observation",
        "id": "562e8d9b-c720-470e-af23-5af23975c7dd",
        "meta": {
          "profile": [
            "http://hl7.eu/fhir/laboratory/StructureDefinition/Observation-resultslab-eu-lab"
          ]
        },
        "performer": [
          {
            "display": "The Central European Lab"
          }
        ],
        "category": [
          {
            "coding": [
              {
                "system": "http://terminology.hl7.org/CodeSystem/observation-category",
                "code": "laboratory"
              }
            ]
          }
        ],
        "code": {
          "coding": [
            {
              "code": "5770-3",
              "system": "http://loinc.org",
              "display": "Bilirubin.total [Presence] in Urine by Test strip"
            }
          ],
          "text": "Bilirubin.total [Presence] in Urine by Test strip"
        },
        "text": {
          "status": "generated",
          "div": "<div xmlns=\"http://www.w3.org/1999/xhtml\"><table class=\"hl7__eu__lab__report\"><tr><th>Test</th><th>16-Jul-2025</th><th>Reference&#xA0;Range</th><th>Unit</th></tr><tr><td>Bilirubin.total [Presence] in Urine by Test strip</td></tr></table></div>"
        },
        "status": "final",
        "subject": {
          "reference": "urn:uuid:7d418f0c-5a3a-47eb-90e6-b509fbea37c0",
          "display": "Dorota Juśkiewicz"
        },
        "effectiveDateTime": "2025-07-15T23:50:08Z"
      }
    },
    {
      "fullUrl": "urn:uuid:3f622058-75ab-4e6d-9cb7-c50ced2129d6",
      "resource": {
        "resourceType": "Observation",
        "id": "3f622058-75ab-4e6d-9cb7-c50ced2129d6",
        "meta": {
          "profile": [
            "http://hl7.eu/fhir/laboratory/StructureDefinition/Observation-resultslab-eu-lab"
          ]
        },
        "performer": [
          {
            "display": "The Central European Lab"
          }
        ],
        "category": [
          {
            "coding": [
              {
                "system": "http://terminology.hl7.org/CodeSystem/observation-category",
                "code": "laboratory"
              }
            ]
          }
        ],
        "code": {
          "coding": [
            {
              "code": "5797-6",
              "system": "http://loinc.org",
              "display": "Ketones [Mass/volume] in Urine by Test strip"
            }
          ],
          "text": "Ketones [Mass/volume] in Urine by Test strip"
        },
        "valueQuantity": {
          "system": "http://unitsofmeasure.org",
          "value": 15,
          "unit": "mg/dL",
          "code": "mg/dL"
        },
        "referenceRange": [
          {
            "low": {
              "value": 0,
              "code": "mg/dL",
              "system": "http://unitsofmeasure.org"
            }
          },
          {
            "high": {
              "value": 4,
              "code": "mg/dL",
              "system": "http://unitsofmeasure.org"
            }
          }
        ],
        "interpretation": [
          {
            "coding": [
              {
                "code": "H",
                "system": "http://terminology.hl7.org/CodeSystem/v3-ObservationInterpretation",
                "display": "High"
              }
            ]
          }
        ],
        "text": {
          "status": "generated",
          "div": "<div xmlns=\"http://www.w3.org/1999/xhtml\"><table class=\"hl7__eu__lab__report\"><tr><th>Test</th><th>16-Jul-2025</th><th>Reference&#xA0;Range</th><th>Unit</th></tr><tr><td>Ketones [Mass/volume] in Urine by Test strip</td><td>15.0</td><td>0 - 4</td><td>H</td><td>mg/dL</td></tr></table></div>"
        },
        "status": "final",
        "subject": {
          "reference": "urn:uuid:7d418f0c-5a3a-47eb-90e6-b509fbea37c0",
          "display": "Dorota Juśkiewicz"
        },
        "effectiveDateTime": "2025-07-15T23:50:08Z"
      }
    },
    {
      "fullUrl": "urn:uuid:e26f9bc0-fa99-48b9-9328-9e3ba5778f5e",
      "resource": {
        "resourceType": "Observation",
        "id": "e26f9bc0-fa99-48b9-9328-9e3ba5778f5e",
        "meta": {
          "profile": [
            "http://hl7.eu/fhir/laboratory/StructureDefinition/Observation-resultslab-eu-lab"
          ]
        },
        "performer": [
          {
            "display": "The Central European Lab"
          }
        ],
        "category": [
          {
            "coding": [
              {
                "system": "http://terminology.hl7.org/CodeSystem/observation-category",
                "code": "laboratory"
              }
            ]
          }
        ],
        "code": {
          "coding": [
            {
              "code": "2514-8",
              "system": "http://loinc.org",
              "display": "Ketones [Presence] in Urine by Test strip"
            }
          ],
          "text": "Ketones [Presence] in Urine by Test strip"
        },
        "text": {
          "status": "generated",
          "div": "<div xmlns=\"http://www.w3.org/1999/xhtml\"><table class=\"hl7__eu__lab__report\"><tr><th>Test</th><th>16-Jul-2025</th><th>Reference&#xA0;Range</th><th>Unit</th></tr><tr><td>Ketones [Presence] in Urine by Test strip</td></tr></table></div>"
        },
        "status": "final",
        "subject": {
          "reference": "urn:uuid:7d418f0c-5a3a-47eb-90e6-b509fbea37c0",
          "display": "Dorota Juśkiewicz"
        },
        "effectiveDateTime": "2025-07-15T23:50:08Z"
      }
    },
    {
      "fullUrl": "urn:uuid:49ee0b92-06e4-46ee-9973-d9991beccd2d",
      "resource": {
        "resourceType": "Observation",
        "id": "49ee0b92-06e4-46ee-9973-d9991beccd2d",
        "meta": {
          "profile": [
            "http://hl7.eu/fhir/laboratory/StructureDefinition/Observation-resultslab-eu-lab"
          ]
        },
        "performer": [
          {
            "display": "The Central European Lab"
          }
        ],
        "category": [
          {
            "coding": [
              {
                "system": "http://terminology.hl7.org/CodeSystem/observation-category",
                "code": "laboratory"
              }
            ]
          }
        ],
        "code": {
          "coding": [
            {
              "code": "5811-5",
              "system": "http://loinc.org",
              "display": "Specific gravity of Urine by Test strip"
            }
          ],
          "text": "Specific gravity of Urine by Test strip"
        },
        "valueQuantity": {
          "system": "http://unitsofmeasure.org",
          "value": 1,
          "unit": "{nominal}",
          "code": "{nominal}"
        },
        "referenceRange": [
          {
            "low": {
              "value": 1.01,
              "code": "g/mL",
              "system": "http://unitsofmeasure.org"
            }
          },
          {
            "high": {
              "value": 1.03,
              "code": "g/mL",
              "system": "http://unitsofmeasure.org"
            }
          }
        ],
        "interpretation": [
          {
            "coding": [
              {
                "code": "L",
                "system": "http://terminology.hl7.org/CodeSystem/v3-ObservationInterpretation",
                "display": "Low"
              }
            ]
          }
        ],
        "text": {
          "status": "generated",
          "div": "<div xmlns=\"http://www.w3.org/1999/xhtml\"><table class=\"hl7__eu__lab__report\"><tr><th>Test</th><th>16-Jul-2025</th><th>Reference&#xA0;Range</th><th>Unit</th></tr><tr><td>Specific gravity of Urine by Test strip</td><td>1.0</td><td>1.01 - 1.03</td><td>L</td><td>{nominal}</td></tr></table></div>"
        },
        "status": "final",
        "subject": {
          "reference": "urn:uuid:7d418f0c-5a3a-47eb-90e6-b509fbea37c0",
          "display": "Dorota Juśkiewicz"
        },
        "effectiveDateTime": "2025-07-15T23:50:08Z"
      }
    },
    {
      "fullUrl": "urn:uuid:31a1eddf-abbe-421d-a272-d48224bf1bb9",
      "resource": {
        "resourceType": "Observation",
        "id": "31a1eddf-abbe-421d-a272-d48224bf1bb9",
        "meta": {
          "profile": [
            "http://hl7.eu/fhir/laboratory/StructureDefinition/Observation-resultslab-eu-lab"
          ]
        },
        "performer": [
          {
            "display": "The Central European Lab"
          }
        ],
        "category": [
          {
            "coding": [
              {
                "system": "http://terminology.hl7.org/CodeSystem/observation-category",
                "code": "laboratory"
              }
            ]
          }
        ],
        "code": {
          "coding": [
            {
              "code": "5803-2",
              "system": "http://loinc.org",
              "display": "pH of Urine by Test strip"
            }
          ],
          "text": "pH of Urine by Test strip"
        },
        "valueQuantity": {
          "system": "http://unitsofmeasure.org",
          "value": 5.4,
          "unit": "pH",
          "code": "pH"
        },
        "referenceRange": [
          {
            "low": {
              "value": 4.5,
              "code": "pH",
              "system": "http://unitsofmeasure.org"
            }
          },
          {
            "high": {
              "value": 7.5,
              "code": "pH",
              "system": "http://unitsofmeasure.org"
            }
          }
        ],
        "text": {
          "status": "generated",
          "div": "<div xmlns=\"http://www.w3.org/1999/xhtml\"><table class=\"hl7__eu__lab__report\"><tr><th>Test</th><th>16-Jul-2025</th><th>Reference&#xA0;Range</th><th>Unit</th></tr><tr><td>pH of Urine by Test strip</td><td>5.4</td><td>4.5 - 7.5</td><td></td><td>pH</td></tr></table></div>"
        },
        "status": "final",
        "subject": {
          "reference": "urn:uuid:7d418f0c-5a3a-47eb-90e6-b509fbea37c0",
          "display": "Dorota Juśkiewicz"
        },
        "effectiveDateTime": "2025-07-15T23:50:08Z"
      }
    },
    {
      "fullUrl": "urn:uuid:e9379b27-0fac-4e04-8873-a0fe24c80f0c",
      "resource": {
        "resourceType": "Observation",
        "id": "e9379b27-0fac-4e04-8873-a0fe24c80f0c",
        "meta": {
          "profile": [
            "http://hl7.eu/fhir/laboratory/StructureDefinition/Observation-resultslab-eu-lab"
          ]
        },
        "performer": [
          {
            "display": "The Central European Lab"
          }
        ],
        "category": [
          {
            "coding": [
              {
                "system": "http://terminology.hl7.org/CodeSystem/observation-category",
                "code": "laboratory"
              }
            ]
          }
        ],
        "code": {
          "coding": [
            {
              "code": "5804-0",
              "system": "http://loinc.org",
              "display": "Protein [Mass/volume] in Urine by Test strip"
            }
          ],
          "text": "Protein [Mass/volume] in Urine by Test strip"
        },
        "valueQuantity": {
          "system": "http://unitsofmeasure.org",
          "value": 313.1,
          "unit": "mg/dL",
          "code": "mg/dL"
        },
        "referenceRange": [
          {
            "low": {
              "value": 0,
              "code": "mg/dL",
              "system": "http://unitsofmeasure.org"
            }
          },
          {
            "high": {
              "value": 149,
              "code": "mg/dL",
              "system": "http://unitsofmeasure.org"
            }
          }
        ],
        "interpretation": [
          {
            "coding": [
              {
                "code": "H",
                "system": "http://terminology.hl7.org/CodeSystem/v3-ObservationInterpretation",
                "display": "High"
              }
            ]
          }
        ],
        "text": {
          "status": "generated",
          "div": "<div xmlns=\"http://www.w3.org/1999/xhtml\"><table class=\"hl7__eu__lab__report\"><tr><th>Test</th><th>16-Jul-2025</th><th>Reference&#xA0;Range</th><th>Unit</th></tr><tr><td>Protein [Mass/volume] in Urine by Test strip</td><td>313.1</td><td>0 - 149</td><td>H</td><td>mg/dL</td></tr></table></div>"
        },
        "status": "final",
        "subject": {
          "reference": "urn:uuid:7d418f0c-5a3a-47eb-90e6-b509fbea37c0",
          "display": "Dorota Juśkiewicz"
        },
        "effectiveDateTime": "2025-07-15T23:50:08Z"
      }
    },
    {
      "fullUrl": "urn:uuid:7e0580e8-2646-4e7a-8242-7538ab7ab267",
      "resource": {
        "resourceType": "Observation",
        "id": "7e0580e8-2646-4e7a-8242-7538ab7ab267",
        "meta": {
          "profile": [
            "http://hl7.eu/fhir/laboratory/StructureDefinition/Observation-resultslab-eu-lab"
          ]
        },
        "performer": [
          {
            "display": "The Central European Lab"
          }
        ],
        "category": [
          {
            "coding": [
              {
                "system": "http://terminology.hl7.org/CodeSystem/observation-category",
                "code": "laboratory"
              }
            ]
          }
        ],
        "code": {
          "coding": [
            {
              "code": "20454-5",
              "system": "http://loinc.org",
              "display": "Protein [Presence] in Urine by Test strip"
            }
          ],
          "text": "Protein [Presence] in Urine by Test strip"
        },
        "text": {
          "status": "generated",
          "div": "<div xmlns=\"http://www.w3.org/1999/xhtml\"><table class=\"hl7__eu__lab__report\"><tr><th>Test</th><th>16-Jul-2025</th><th>Reference&#xA0;Range</th><th>Unit</th></tr><tr><td>Protein [Presence] in Urine by Test strip</td></tr></table></div>"
        },
        "status": "final",
        "subject": {
          "reference": "urn:uuid:7d418f0c-5a3a-47eb-90e6-b509fbea37c0",
          "display": "Dorota Juśkiewicz"
        },
        "effectiveDateTime": "2025-07-15T23:50:08Z"
      }
    },
    {
      "fullUrl": "urn:uuid:3e07e1e3-6cb8-490c-98c1-a9d541019b76",
      "resource": {
        "resourceType": "Observation",
        "id": "3e07e1e3-6cb8-490c-98c1-a9d541019b76",
        "meta": {
          "profile": [
            "http://hl7.eu/fhir/laboratory/StructureDefinition/Observation-resultslab-eu-lab"
          ]
        },
        "performer": [
          {
            "display": "The Central European Lab"
          }
        ],
        "category": [
          {
            "coding": [
              {
                "system": "http://terminology.hl7.org/CodeSystem/observation-category",
                "code": "laboratory"
              }
            ]
          }
        ],
        "code": {
          "coding": [
            {
              "code": "5802-4",
              "system": "http://loinc.org",
              "display": "Nitrite [Presence] in Urine by Test strip"
            }
          ],
          "text": "Nitrite [Presence] in Urine by Test strip"
        },
        "text": {
          "status": "generated",
          "div": "<div xmlns=\"http://www.w3.org/1999/xhtml\"><table class=\"hl7__eu__lab__report\"><tr><th>Test</th><th>16-Jul-2025</th><th>Reference&#xA0;Range</th><th>Unit</th></tr><tr><td>Nitrite [Presence] in Urine by Test strip</td></tr></table></div>"
        },
        "status": "final",
        "subject": {
          "reference": "urn:uuid:7d418f0c-5a3a-47eb-90e6-b509fbea37c0",
          "display": "Dorota Juśkiewicz"
        },
        "effectiveDateTime": "2025-07-15T23:50:08Z"
      }
    },
    {
      "fullUrl": "urn:uuid:d474267c-36b8-4a58-b207-32ccff8d9ef5",
      "resource": {
        "resourceType": "Observation",
        "id": "d474267c-36b8-4a58-b207-32ccff8d9ef5",
        "meta": {
          "profile": [
            "http://hl7.eu/fhir/laboratory/StructureDefinition/Observation-resultslab-eu-lab"
          ]
        },
        "performer": [
          {
            "display": "The Central European Lab"
          }
        ],
        "category": [
          {
            "coding": [
              {
                "system": "http://terminology.hl7.org/CodeSystem/observation-category",
                "code": "laboratory"
              }
            ]
          }
        ],
        "code": {
          "coding": [
            {
              "code": "5794-3",
              "system": "http://loinc.org",
              "display": "Hemoglobin [Presence] in Urine by Test strip"
            }
          ],
          "text": "Hemoglobin [Presence] in Urine by Test strip"
        },
        "text": {
          "status": "generated",
          "div": "<div xmlns=\"http://www.w3.org/1999/xhtml\"><table class=\"hl7__eu__lab__report\"><tr><th>Test</th><th>16-Jul-2025</th><th>Reference&#xA0;Range</th><th>Unit</th></tr><tr><td>Hemoglobin [Presence] in Urine by Test strip</td></tr></table></div>"
        },
        "status": "final",
        "subject": {
          "reference": "urn:uuid:7d418f0c-5a3a-47eb-90e6-b509fbea37c0",
          "display": "Dorota Juśkiewicz"
        },
        "effectiveDateTime": "2025-07-15T23:50:08Z"
      }
    },
    {
      "fullUrl": "urn:uuid:7ffa7a44-c6bb-48d8-9deb-f1d9d2b4800d",
      "resource": {
        "resourceType": "Observation",
        "id": "7ffa7a44-c6bb-48d8-9deb-f1d9d2b4800d",
        "meta": {
          "profile": [
            "http://hl7.eu/fhir/laboratory/StructureDefinition/Observation-resultslab-eu-lab"
          ]
        },
        "performer": [
          {
            "display": "The Central European Lab"
          }
        ],
        "category": [
          {
            "coding": [
              {
                "system": "http://terminology.hl7.org/CodeSystem/observation-category",
                "code": "laboratory"
              }
            ]
          }
        ],
        "code": {
          "coding": [
            {
              "code": "5799-2",
              "system": "http://loinc.org",
              "display": "Leukocyte esterase [Presence] in Urine by Test strip"
            }
          ],
          "text": "Leukocyte esterase [Presence] in Urine by Test strip"
        },
        "text": {
          "status": "generated",
          "div": "<div xmlns=\"http://www.w3.org/1999/xhtml\"><table class=\"hl7__eu__lab__report\"><tr><th>Test</th><th>16-Jul-2025</th><th>Reference&#xA0;Range</th><th>Unit</th></tr><tr><td>Leukocyte esterase [Presence] in Urine by Test strip</td></tr></table></div>"
        },
        "status": "final",
        "subject": {
          "reference": "urn:uuid:7d418f0c-5a3a-47eb-90e6-b509fbea37c0",
          "display": "Dorota Juśkiewicz"
        },
        "effectiveDateTime": "2025-07-15T23:50:08Z"
      }
    },
    {
      "fullUrl": "urn:uuid:50e1805e-b353-48f5-ba39-eb7e93f9361e",
      "resource": {
        "resourceType": "Observation",
        "id": "50e1805e-b353-48f5-ba39-eb7e93f9361e",
        "meta": {
          "profile": [
            "http://hl7.eu/fhir/laboratory/StructureDefinition/Observation-resultslab-eu-lab"
          ]
        },
        "performer": [
          {
            "display": "The Central European Lab"
          }
        ],
        "category": [
          {
            "coding": [
              {
                "system": "http://terminology.hl7.org/CodeSystem/observation-category",
                "code": "laboratory"
              }
            ]
          }
        ],
        "code": {
          "coding": [
            {
              "code": "4548-4",
              "system": "http://loinc.org",
              "display": "Hemoglobin A1c/Hemoglobin.total in Blood"
            }
          ],
          "text": "Hemoglobin A1c/Hemoglobin.total in Blood"
        },
        "valueQuantity": {
          "system": "http://unitsofmeasure.org",
          "value": 2.5,
          "unit": "%",
          "code": "%"
        },
        "referenceRange": [
          {
            "low": {
              "value": 3.9,
              "code": "%",
              "system": "http://unitsofmeasure.org"
            }
          },
          {
            "high": {
              "value": 5.7,
              "code": "%",
              "system": "http://unitsofmeasure.org"
            }
          }
        ],
        "interpretation": [
          {
            "coding": [
              {
                "code": "L",
                "system": "http://terminology.hl7.org/CodeSystem/v3-ObservationInterpretation",
                "display": "Low"
              }
            ]
          }
        ],
        "text": {
          "status": "generated",
          "div": "<div xmlns=\"http://www.w3.org/1999/xhtml\"><table class=\"hl7__eu__lab__report\"><tr><th>Test</th><th>16-Jul-2025</th><th>Reference&#xA0;Range</th><th>Unit</th></tr><tr><td>Hemoglobin A1c/Hemoglobin.total in Blood</td><td>2.5</td><td>3.9 - 5.7</td><td>L</td><td>%</td></tr></table></div>"
        },
        "status": "final",
        "subject": {
          "reference": "urn:uuid:7d418f0c-5a3a-47eb-90e6-b509fbea37c0",
          "display": "Dorota Juśkiewicz"
        },
        "effectiveDateTime": "2025-07-15T23:50:08Z"
      }
    },
    {
      "fullUrl": "urn:uuid:bb86aeff-7786-4106-b91f-f6f8226ba086",
      "resource": {
        "resourceType": "Observation",
        "id": "bb86aeff-7786-4106-b91f-f6f8226ba086",
        "meta": {
          "profile": [
            "http://hl7.eu/fhir/laboratory/StructureDefinition/Observation-resultslab-eu-lab"
          ]
        },
        "performer": [
          {
            "display": "The Central European Lab"
          }
        ],
        "category": [
          {
            "coding": [
              {
                "system": "http://terminology.hl7.org/CodeSystem/observation-category",
                "code": "laboratory"
              }
            ]
          }
        ],
        "code": {
          "coding": [
            {
              "code": "2339-0",
              "system": "http://loinc.org",
              "display": "Glucose [Mass/volume] in Blood"
            }
          ],
          "text": "Glucose [Mass/volume] in Blood"
        },
        "valueQuantity": {
          "system": "http://unitsofmeasure.org",
          "value": 98.4,
          "unit": "mg/dL",
          "code": "mg/dL"
        },
        "referenceRange": [
          {
            "low": {
              "value": 70,
              "code": "mg/dL",
              "system": "http://unitsofmeasure.org"
            }
          },
          {
            "high": {
              "value": 140,
              "code": "mg/dL",
              "system": "http://unitsofmeasure.org"
            }
          }
        ],
        "text": {
          "status": "generated",
          "div": "<div xmlns=\"http://www.w3.org/1999/xhtml\"><table class=\"hl7__eu__lab__report\"><tr><th>Test</th><th>16-Jul-2025</th><th>Reference&#xA0;Range</th><th>Unit</th></tr><tr><td>Glucose [Mass/volume] in Blood</td><td>98.4</td><td>70 - 140</td><td></td><td>mg/dL</td></tr></table></div>"
        },
        "status": "final",
        "subject": {
          "reference": "urn:uuid:7d418f0c-5a3a-47eb-90e6-b509fbea37c0",
          "display": "Dorota Juśkiewicz"
        },
        "effectiveDateTime": "2025-07-15T23:50:08Z"
      }
    },
    {
      "fullUrl": "urn:uuid:e5dd3bbf-e971-4ecc-b608-5c5b6565351d",
      "resource": {
        "resourceType": "Observation",
        "id": "e5dd3bbf-e971-4ecc-b608-5c5b6565351d",
        "meta": {
          "profile": [
            "http://hl7.eu/fhir/laboratory/StructureDefinition/Observation-resultslab-eu-lab"
          ]
        },
        "performer": [
          {
            "display": "The Central European Lab"
          }
        ],
        "category": [
          {
            "coding": [
              {
                "system": "http://terminology.hl7.org/CodeSystem/observation-category",
                "code": "laboratory"
              }
            ]
          }
        ],
        "code": {
          "coding": [
            {
              "code": "6299-2",
              "system": "http://loinc.org",
              "display": "Urea nitrogen [Mass/volume] in Blood"
            }
          ],
          "text": "Urea nitrogen [Mass/volume] in Blood"
        },
        "valueQuantity": {
          "system": "http://unitsofmeasure.org",
          "value": 13.8,
          "unit": "mg/dL",
          "code": "mg/dL"
        },
        "referenceRange": [
          {
            "low": {
              "value": 7,
              "code": "mg/dL",
              "system": "http://unitsofmeasure.org"
            }
          },
          {
            "high": {
              "value": 25,
              "code": "mg/dL",
              "system": "http://unitsofmeasure.org"
            }
          }
        ],
        "text": {
          "status": "generated",
          "div": "<div xmlns=\"http://www.w3.org/1999/xhtml\"><table class=\"hl7__eu__lab__report\"><tr><th>Test</th><th>16-Jul-2025</th><th>Reference&#xA0;Range</th><th>Unit</th></tr><tr><td>Urea nitrogen [Mass/volume] in Blood</td><td>13.8</td><td>7 - 25</td><td></td><td>mg/dL</td></tr></table></div>"
        },
        "status": "final",
        "subject": {
          "reference": "urn:uuid:7d418f0c-5a3a-47eb-90e6-b509fbea37c0",
          "display": "Dorota Juśkiewicz"
        },
        "effectiveDateTime": "2025-07-15T23:50:08Z"
      }
    },
    {
      "fullUrl": "urn:uuid:01cf2f63-e502-4272-bf28-75b71436fa4f",
      "resource": {
        "resourceType": "Observation",
        "id": "01cf2f63-e502-4272-bf28-75b71436fa4f",
        "meta": {
          "profile": [
            "http://hl7.eu/fhir/laboratory/StructureDefinition/Observation-resultslab-eu-lab"
          ]
        },
        "performer": [
          {
            "display": "The Central European Lab"
          }
        ],
        "category": [
          {
            "coding": [
              {
                "system": "http://terminology.hl7.org/CodeSystem/observation-category",
                "code": "laboratory"
              }
            ]
          }
        ],
        "code": {
          "coding": [
            {
              "code": "38483-4",
              "system": "http://loinc.org",
              "display": "Creatinine [Mass/volume] in Blood"
            }
          ],
          "text": "Creatinine [Mass/volume] in Blood"
        },
        "valueQuantity": {
          "system": "http://unitsofmeasure.org",
          "value": 1.1,
          "unit": "mg/dL",
          "code": "mg/dL"
        },
        "referenceRange": [
          {
            "low": {
              "value": 0.6,
              "code": "mg/dL",
              "system": "http://unitsofmeasure.org"
            }
          },
          {
            "high": {
              "value": 1.3,
              "code": "mg/dL",
              "system": "http://unitsofmeasure.org"
            }
          }
        ],
        "text": {
          "status": "generated",
          "div": "<div xmlns=\"http://www.w3.org/1999/xhtml\"><table class=\"hl7__eu__lab__report\"><tr><th>Test</th><th>16-Jul-2025</th><th>Reference&#xA0;Range</th><th>Unit</th></tr><tr><td>Creatinine [Mass/volume] in Blood</td><td>1.1</td><td>0.6 - 1.3</td><td></td><td>mg/dL</td></tr></table></div>"
        },
        "status": "final",
        "subject": {
          "reference": "urn:uuid:7d418f0c-5a3a-47eb-90e6-b509fbea37c0",
          "display": "Dorota Juśkiewicz"
        },
        "effectiveDateTime": "2025-07-15T23:50:08Z"
      }
    },
    {
      "fullUrl": "urn:uuid:658f62d9-c96b-4886-85dc-28b8354ed80d",
      "resource": {
        "resourceType": "Observation",
        "id": "658f62d9-c96b-4886-85dc-28b8354ed80d",
        "meta": {
          "profile": [
            "http://hl7.eu/fhir/laboratory/StructureDefinition/Observation-resultslab-eu-lab"
          ]
        },
        "performer": [
          {
            "display": "The Central European Lab"
          }
        ],
        "category": [
          {
            "coding": [
              {
                "system": "http://terminology.hl7.org/CodeSystem/observation-category",
                "code": "laboratory"
              }
            ]
          }
        ],
        "code": {
          "coding": [
            {
              "code": "49765-1",
              "system": "http://loinc.org",
              "display": "Calcium [Mass/volume] in Blood"
            }
          ],
          "text": "Calcium [Mass/volume] in Blood"
        },
        "valueQuantity": {
          "system": "http://unitsofmeasure.org",
          "value": 9.3,
          "unit": "mg/dL",
          "code": "mg/dL"
        },
        "referenceRange": [
          {
            "low": {
              "value": 8.5,
              "code": "mg/dL",
              "system": "http://unitsofmeasure.org"
            }
          },
          {
            "high": {
              "value": 10.4,
              "code": "mg/dL",
              "system": "http://unitsofmeasure.org"
            }
          }
        ],
        "text": {
          "status": "generated",
          "div": "<div xmlns=\"http://www.w3.org/1999/xhtml\"><table class=\"hl7__eu__lab__report\"><tr><th>Test</th><th>16-Jul-2025</th><th>Reference&#xA0;Range</th><th>Unit</th></tr><tr><td>Calcium [Mass/volume] in Blood</td><td>9.3</td><td>8.5 - 10.4</td><td></td><td>mg/dL</td></tr></table></div>"
        },
        "status": "final",
        "subject": {
          "reference": "urn:uuid:7d418f0c-5a3a-47eb-90e6-b509fbea37c0",
          "display": "Dorota Juśkiewicz"
        },
        "effectiveDateTime": "2025-07-15T23:50:08Z"
      }
    },
    {
      "fullUrl": "urn:uuid:0a4d4abb-c8e3-4cd0-bee5-6b9ace384ae4",
      "resource": {
        "resourceType": "Observation",
        "id": "0a4d4abb-c8e3-4cd0-bee5-6b9ace384ae4",
        "meta": {
          "profile": [
            "http://hl7.eu/fhir/laboratory/StructureDefinition/Observation-resultslab-eu-lab"
          ]
        },
        "performer": [
          {
            "display": "The Central European Lab"
          }
        ],
        "category": [
          {
            "coding": [
              {
                "system": "http://terminology.hl7.org/CodeSystem/observation-category",
                "code": "laboratory"
              }
            ]
          }
        ],
        "code": {
          "coding": [
            {
              "code": "2947-0",
              "system": "http://loinc.org",
              "display": "Sodium [Moles/volume] in Blood"
            }
          ],
          "text": "Sodium [Moles/volume] in Blood"
        },
        "valueQuantity": {
          "system": "http://unitsofmeasure.org",
          "value": 142.5,
          "unit": "mmol/L",
          "code": "mmol/L"
        },
        "referenceRange": [
          {
            "low": {
              "value": 135,
              "code": "mmol/L",
              "system": "http://unitsofmeasure.org"
            }
          },
          {
            "high": {
              "value": 145,
              "code": "mmol/L",
              "system": "http://unitsofmeasure.org"
            }
          }
        ],
        "text": {
          "status": "generated",
          "div": "<div xmlns=\"http://www.w3.org/1999/xhtml\"><table class=\"hl7__eu__lab__report\"><tr><th>Test</th><th>16-Jul-2025</th><th>Reference&#xA0;Range</th><th>Unit</th></tr><tr><td>Sodium [Moles/volume] in Blood</td><td>142.5</td><td>135 - 145</td><td></td><td>mmol/L</td></tr></table></div>"
        },
        "status": "final",
        "subject": {
          "reference": "urn:uuid:7d418f0c-5a3a-47eb-90e6-b509fbea37c0",
          "display": "Dorota Juśkiewicz"
        },
        "effectiveDateTime": "2025-07-15T23:50:08Z"
      }
    },
    {
      "fullUrl": "urn:uuid:3d786c9a-d756-4049-abc1-80ad21eedba3",
      "resource": {
        "resourceType": "Observation",
        "id": "3d786c9a-d756-4049-abc1-80ad21eedba3",
        "meta": {
          "profile": [
            "http://hl7.eu/fhir/laboratory/StructureDefinition/Observation-resultslab-eu-lab"
          ]
        },
        "performer": [
          {
            "display": "The Central European Lab"
          }
        ],
        "category": [
          {
            "coding": [
              {
                "system": "http://terminology.hl7.org/CodeSystem/observation-category",
                "code": "laboratory"
              }
            ]
          }
        ],
        "code": {
          "coding": [
            {
              "code": "6298-4",
              "system": "http://loinc.org",
              "display": "Potassium [Moles/volume] in Blood"
            }
          ],
          "text": "Potassium [Moles/volume] in Blood"
        },
        "valueQuantity": {
          "system": "http://unitsofmeasure.org",
          "value": 5,
          "unit": "mmol/L",
          "code": "mmol/L"
        },
        "referenceRange": [
          {
            "low": {
              "value": 3.5,
              "code": "mmol/L",
              "system": "http://unitsofmeasure.org"
            }
          },
          {
            "high": {
              "value": 5.1,
              "code": "mmol/L",
              "system": "http://unitsofmeasure.org"
            }
          }
        ],
        "text": {
          "status": "generated",
          "div": "<div xmlns=\"http://www.w3.org/1999/xhtml\"><table class=\"hl7__eu__lab__report\"><tr><th>Test</th><th>16-Jul-2025</th><th>Reference&#xA0;Range</th><th>Unit</th></tr><tr><td>Potassium [Moles/volume] in Blood</td><td>5.0</td><td>3.5 - 5.1</td><td></td><td>mmol/L</td></tr></table></div>"
        },
        "status": "final",
        "subject": {
          "reference": "urn:uuid:7d418f0c-5a3a-47eb-90e6-b509fbea37c0",
          "display": "Dorota Juśkiewicz"
        },
        "effectiveDateTime": "2025-07-15T23:50:08Z"
      }
    },
    {
      "fullUrl": "urn:uuid:ef9c45ae-895d-4589-96bd-129c88025dc2",
      "resource": {
        "resourceType": "Observation",
        "id": "ef9c45ae-895d-4589-96bd-129c88025dc2",
        "meta": {
          "profile": [
            "http://hl7.eu/fhir/laboratory/StructureDefinition/Observation-resultslab-eu-lab"
          ]
        },
        "performer": [
          {
            "display": "The Central European Lab"
          }
        ],
        "category": [
          {
            "coding": [
              {
                "system": "http://terminology.hl7.org/CodeSystem/observation-category",
                "code": "laboratory"
              }
            ]
          }
        ],
        "code": {
          "coding": [
            {
              "code": "2069-3",
              "system": "http://loinc.org",
              "display": "Chloride [Moles/volume] in Blood"
            }
          ],
          "text": "Chloride [Moles/volume] in Blood"
        },
        "valueQuantity": {
          "system": "http://unitsofmeasure.org",
          "value": 101.7,
          "unit": "mmol/L",
          "code": "mmol/L"
        },
        "referenceRange": [
          {
            "low": {
              "value": 98,
              "code": "mmol/L",
              "system": "http://unitsofmeasure.org"
            }
          },
          {
            "high": {
              "value": 114,
              "code": "mmol/L",
              "system": "http://unitsofmeasure.org"
            }
          }
        ],
        "text": {
          "status": "generated",
          "div": "<div xmlns=\"http://www.w3.org/1999/xhtml\"><table class=\"hl7__eu__lab__report\"><tr><th>Test</th><th>16-Jul-2025</th><th>Reference&#xA0;Range</th><th>Unit</th></tr><tr><td>Chloride [Moles/volume] in Blood</td><td>101.7</td><td>98 - 114</td><td></td><td>mmol/L</td></tr></table></div>"
        },
        "status": "final",
        "subject": {
          "reference": "urn:uuid:7d418f0c-5a3a-47eb-90e6-b509fbea37c0",
          "display": "Dorota Juśkiewicz"
        },
        "effectiveDateTime": "2025-07-15T23:50:08Z"
      }
    },
    {
      "fullUrl": "urn:uuid:484919fc-ac8f-46d8-ac7e-8327bab41013",
      "resource": {
        "resourceType": "Observation",
        "id": "484919fc-ac8f-46d8-ac7e-8327bab41013",
        "meta": {
          "profile": [
            "http://hl7.eu/fhir/laboratory/StructureDefinition/Observation-resultslab-eu-lab"
          ]
        },
        "performer": [
          {
            "display": "The Central European Lab"
          }
        ],
        "category": [
          {
            "coding": [
              {
                "system": "http://terminology.hl7.org/CodeSystem/observation-category",
                "code": "laboratory"
              }
            ]
          }
        ],
        "code": {
          "coding": [
            {
              "code": "20565-8",
              "system": "http://loinc.org",
              "display": "Carbon dioxide, total [Moles/volume] in Blood"
            }
          ],
          "text": "Carbon dioxide, total [Moles/volume] in Blood"
        },
        "valueQuantity": {
          "system": "http://unitsofmeasure.org",
          "value": 20.9,
          "unit": "mmol/L",
          "code": "mmol/L"
        },
        "referenceRange": [
          {
            "low": {
              "value": 22,
              "code": "mmol/L",
              "system": "http://unitsofmeasure.org"
            }
          },
          {
            "high": {
              "value": 29,
              "code": "mmol/L",
              "system": "http://unitsofmeasure.org"
            }
          }
        ],
        "interpretation": [
          {
            "coding": [
              {
                "code": "L",
                "system": "http://terminology.hl7.org/CodeSystem/v3-ObservationInterpretation",
                "display": "Low"
              }
            ]
          }
        ],
        "text": {
          "status": "generated",
          "div": "<div xmlns=\"http://www.w3.org/1999/xhtml\"><table class=\"hl7__eu__lab__report\"><tr><th>Test</th><th>16-Jul-2025</th><th>Reference&#xA0;Range</th><th>Unit</th></tr><tr><td>Carbon dioxide, total [Moles/volume] in Blood</td><td>20.9</td><td>22 - 29</td><td>L</td><td>mmol/L</td></tr></table></div>"
        },
        "status": "final",
        "subject": {
          "reference": "urn:uuid:7d418f0c-5a3a-47eb-90e6-b509fbea37c0",
          "display": "Dorota Juśkiewicz"
        },
        "effectiveDateTime": "2025-07-15T23:50:08Z"
      }
    },
    {
      "fullUrl": "urn:uuid:c8781715-8f8b-49b3-9ee4-b85469146027",
      "resource": {
        "resourceType": "Observation",
        "id": "c8781715-8f8b-49b3-9ee4-b85469146027",
        "meta": {
          "profile": [
            "http://hl7.eu/fhir/laboratory/StructureDefinition/Observation-resultslab-eu-lab"
          ]
        },
        "performer": [
          {
            "display": "The Central European Lab"
          }
        ],
        "category": [
          {
            "coding": [
              {
                "system": "http://terminology.hl7.org/CodeSystem/observation-category",
                "code": "laboratory"
              }
            ]
          }
        ],
        "code": {
          "coding": [
            {
              "code": "2093-3",
              "system": "http://loinc.org",
              "display": "Cholesterol [Mass/volume] in Serum or Plasma"
            }
          ],
          "text": "Cholesterol [Mass/volume] in Serum or Plasma"
        },
        "valueQuantity": {
          "system": "http://unitsofmeasure.org",
          "value": 135.2,
          "unit": "mg/dL",
          "code": "mg/dL"
        },
        "referenceRange": [
          {
            "low": {
              "value": 100,
              "code": "mg/dL",
              "system": "http://unitsofmeasure.org"
            }
          },
          {
            "high": {
              "value": 200,
              "code": "mg/dL",
              "system": "http://unitsofmeasure.org"
            }
          }
        ],
        "text": {
          "status": "generated",
          "div": "<div xmlns=\"http://www.w3.org/1999/xhtml\"><table class=\"hl7__eu__lab__report\"><tr><th>Test</th><th>16-Jul-2025</th><th>Reference&#xA0;Range</th><th>Unit</th></tr><tr><td>Cholesterol [Mass/volume] in Serum or Plasma</td><td>135.2</td><td>100 - 200</td><td></td><td>mg/dL</td></tr></table></div>"
        },
        "status": "final",
        "subject": {
          "reference": "urn:uuid:7d418f0c-5a3a-47eb-90e6-b509fbea37c0",
          "display": "Dorota Juśkiewicz"
        },
        "effectiveDateTime": "2025-07-15T23:50:08Z"
      }
    },
    {
      "fullUrl": "urn:uuid:83ba4565-2aef-4c3c-8f04-bd8d701a5959",
      "resource": {
        "resourceType": "Observation",
        "id": "83ba4565-2aef-4c3c-8f04-bd8d701a5959",
        "meta": {
          "profile": [
            "http://hl7.eu/fhir/laboratory/StructureDefinition/Observation-resultslab-eu-lab"
          ]
        },
        "performer": [
          {
            "display": "The Central European Lab"
          }
        ],
        "category": [
          {
            "coding": [
              {
                "system": "http://terminology.hl7.org/CodeSystem/observation-category",
                "code": "laboratory"
              }
            ]
          }
        ],
        "code": {
          "coding": [
            {
              "code": "2571-8",
              "system": "http://loinc.org",
              "display": "Triglyceride [Mass/volume] in Serum or Plasma"
            }
          ],
          "text": "Triglyceride [Mass/volume] in Serum or Plasma"
        },
        "valueQuantity": {
          "system": "http://unitsofmeasure.org",
          "value": 128.7,
          "unit": "mg/dL",
          "code": "mg/dL"
        },
        "referenceRange": [
          {
            "low": {
              "value": 35,
              "code": "mg/dL",
              "system": "http://unitsofmeasure.org"
            }
          },
          {
            "high": {
              "value": 175,
              "code": "mg/dL",
              "system": "http://unitsofmeasure.org"
            }
          }
        ],
        "text": {
          "status": "generated",
          "div": "<div xmlns=\"http://www.w3.org/1999/xhtml\"><table class=\"hl7__eu__lab__report\"><tr><th>Test</th><th>16-Jul-2025</th><th>Reference&#xA0;Range</th><th>Unit</th></tr><tr><td>Triglyceride [Mass/volume] in Serum or Plasma</td><td>128.7</td><td>35 - 175</td><td></td><td>mg/dL</td></tr></table></div>"
        },
        "status": "final",
        "subject": {
          "reference": "urn:uuid:7d418f0c-5a3a-47eb-90e6-b509fbea37c0",
          "display": "Dorota Juśkiewicz"
        },
        "effectiveDateTime": "2025-07-15T23:50:08Z"
      }
    },
    {
      "fullUrl": "urn:uuid:71f633c5-bbf7-428b-a878-253f23f920fb",
      "resource": {
        "resourceType": "Observation",
        "id": "71f633c5-bbf7-428b-a878-253f23f920fb",
        "meta": {
          "profile": [
            "http://hl7.eu/fhir/laboratory/StructureDefinition/Observation-resultslab-eu-lab"
          ]
        },
        "performer": [
          {
            "display": "The Central European Lab"
          }
        ],
        "category": [
          {
            "coding": [
              {
                "system": "http://terminology.hl7.org/CodeSystem/observation-category",
                "code": "laboratory"
              }
            ]
          }
        ],
        "code": {
          "coding": [
            {
              "code": "18262-6",
              "system": "http://loinc.org",
              "display": "Cholesterol in LDL [Mass/volume] in Serum or Plasma by Direct assay"
            }
          ],
          "text": "Cholesterol in LDL [Mass/volume] in Serum or Plasma by Direct assay"
        },
        "valueQuantity": {
          "system": "http://unitsofmeasure.org",
          "value": 64.8,
          "unit": "mg/dL",
          "code": "mg/dL"
        },
        "referenceRange": [
          {
            "low": {
              "value": 0,
              "code": "mg/dL",
              "system": "http://unitsofmeasure.org"
            }
          },
          {
            "high": {
              "value": 130,
              "code": "mg/dL",
              "system": "http://unitsofmeasure.org"
            }
          }
        ],
        "text": {
          "status": "generated",
          "div": "<div xmlns=\"http://www.w3.org/1999/xhtml\"><table class=\"hl7__eu__lab__report\"><tr><th>Test</th><th>16-Jul-2025</th><th>Reference&#xA0;Range</th><th>Unit</th></tr><tr><td>Cholesterol in LDL [Mass/volume] in Serum or Plasma by Direct assay</td><td>64.8</td><td>0 - 130</td><td></td><td>mg/dL</td></tr></table></div>"
        },
        "status": "final",
        "subject": {
          "reference": "urn:uuid:7d418f0c-5a3a-47eb-90e6-b509fbea37c0",
          "display": "Dorota Juśkiewicz"
        },
        "effectiveDateTime": "2025-07-15T23:50:08Z"
      }
    },
    {
      "fullUrl": "urn:uuid:9663df70-b95e-470f-8226-a14011d72083",
      "resource": {
        "resourceType": "Observation",
        "id": "9663df70-b95e-470f-8226-a14011d72083",
        "meta": {
          "profile": [
            "http://hl7.eu/fhir/laboratory/StructureDefinition/Observation-resultslab-eu-lab"
          ]
        },
        "performer": [
          {
            "display": "The Central European Lab"
          }
        ],
        "category": [
          {
            "coding": [
              {
                "system": "http://terminology.hl7.org/CodeSystem/observation-category",
                "code": "laboratory"
              }
            ]
          }
        ],
        "code": {
          "coding": [
            {
              "code": "2085-9",
              "system": "http://loinc.org",
              "display": "Cholesterol in HDL [Mass/volume] in Serum or Plasma"
            }
          ],
          "text": "Cholesterol in HDL [Mass/volume] in Serum or Plasma"
        },
        "valueQuantity": {
          "system": "http://unitsofmeasure.org",
          "value": 44.6,
          "unit": "mg/dL",
          "code": "mg/dL"
        },
        "referenceRange": [
          {
            "low": {
              "value": 50,
              "code": "mg/dL",
              "system": "http://unitsofmeasure.org"
            }
          },
          {
            "high": {
              "value": 100,
              "code": "mg/dL",
              "system": "http://unitsofmeasure.org"
            }
          }
        ],
        "interpretation": [
          {
            "coding": [
              {
                "code": "L",
                "system": "http://terminology.hl7.org/CodeSystem/v3-ObservationInterpretation",
                "display": "Low"
              }
            ]
          }
        ],
        "text": {
          "status": "generated",
          "div": "<div xmlns=\"http://www.w3.org/1999/xhtml\"><table class=\"hl7__eu__lab__report\"><tr><th>Test</th><th>16-Jul-2025</th><th>Reference&#xA0;Range</th><th>Unit</th></tr><tr><td>Cholesterol in HDL [Mass/volume] in Serum or Plasma</td><td>44.6</td><td>50 - 100</td><td>L</td><td>mg/dL</td></tr></table></div>"
        },
        "status": "final",
        "subject": {
          "reference": "urn:uuid:7d418f0c-5a3a-47eb-90e6-b509fbea37c0",
          "display": "Dorota Juśkiewicz"
        },
        "effectiveDateTime": "2025-07-15T23:50:08Z"
      }
    },
    {
      "fullUrl": "urn:uuid:ac059508-dfc0-45dc-a010-dc4384b81d23",
      "resource": {
        "resourceType": "Observation",
        "id": "ac059508-dfc0-45dc-a010-dc4384b81d23",
        "meta": {
          "profile": [
            "http://hl7.eu/fhir/laboratory/StructureDefinition/Observation-resultslab-eu-lab"
          ]
        },
        "performer": [
          {
            "display": "The Central European Lab"
          }
        ],
        "category": [
          {
            "coding": [
              {
                "system": "http://terminology.hl7.org/CodeSystem/observation-category",
                "code": "laboratory"
              }
            ]
          }
        ],
        "code": {
          "coding": [
            {
              "code": "14959-1",
              "system": "http://loinc.org",
              "display": "Microalbumin/Creatinine [Mass Ratio] in Urine"
            }
          ],
          "text": "Microalbumin/Creatinine [Mass Ratio] in Urine"
        },
        "valueQuantity": {
          "system": "http://unitsofmeasure.org",
          "value": 21.3,
          "unit": "mg/g",
          "code": "mg/g"
        },
        "referenceRange": [
          {
            "low": {
              "value": 0,
              "code": "mg/g",
              "system": "http://unitsofmeasure.org"
            }
          },
          {
            "high": {
              "value": 30,
              "code": "mg/g",
              "system": "http://unitsofmeasure.org"
            }
          }
        ],
        "text": {
          "status": "generated",
          "div": "<div xmlns=\"http://www.w3.org/1999/xhtml\"><table class=\"hl7__eu__lab__report\"><tr><th>Test</th><th>16-Jul-2025</th><th>Reference&#xA0;Range</th><th>Unit</th></tr><tr><td>Microalbumin/Creatinine [Mass Ratio] in Urine</td><td>21.3</td><td>0 - 30</td><td></td><td>mg/g</td></tr></table></div>"
        },
        "status": "final",
        "subject": {
          "reference": "urn:uuid:7d418f0c-5a3a-47eb-90e6-b509fbea37c0",
          "display": "Dorota Juśkiewicz"
        },
        "effectiveDateTime": "2025-07-15T23:50:08Z"
      }
    },
    {
      "fullUrl": "urn:uuid:62f9fbe0-9f31-4471-8e23-80378a420a2a",
      "resource": {
        "resourceType": "DeviceUseStatement",
        "id": "62f9fbe0-9f31-4471-8e23-80378a420a2a",
        "meta": {
          "profile": [
            "http://hl7.eu/fhir/eps/StructureDefinition/deviceUseStatement-eu-eps"
          ]
        },
        "timingPeriod": {
          "start": "1979-02-17"
        },
        "text": {
          "status": "generated",
          "div": "<div xmlns=\"http://www.w3.org/1999/xhtml\"><table class=\"hl7__ips\"><tr><td>Manual wheelchair (physical object)</td><td><span class=\"nb\">17-Feb-1979</span></td></tr></table></div>"
        },
        "status": "active",
        "device": {
          "reference": "urn:uuid:1d31e0d1-bca5-4032-a1cf-392a2c647c2c",
          "display": "Manual wheelchair (physical object)"
        },
        "subject": {
          "reference": "urn:uuid:7d418f0c-5a3a-47eb-90e6-b509fbea37c0",
          "display": "Dorota Juśkiewicz"
        }
      }
    },
    {
      "fullUrl": "urn:uuid:1d31e0d1-bca5-4032-a1cf-392a2c647c2c",
      "resource": {
        "resourceType": "Device",
        "id": "1d31e0d1-bca5-4032-a1cf-392a2c647c2c",
        "meta": {
          "profile": [
            "http://hl7.eu/fhir/eps/StructureDefinition/device-eu-eps"
          ]
        },
        "udiCarrier": [
          {
            "id": "(01)17036584483442(11)790128(17)040212(10)7475286136148445459(21)42515549760"
          }
        ],
        "status": "active",
        "patient": {
          "reference": "urn:uuid:7d418f0c-5a3a-47eb-90e6-b509fbea37c0",
          "display": "Dorota Juśkiewicz"
        },
        "type": {
          "coding": [
            {
              "code": "228869008",
              "system": "http://snomed.info/sct",
              "display": "Manual wheelchair (physical object)"
            }
          ]
        }
      }
    },
    {
      "fullUrl": "urn:uuid:f1ebd612-0770-4771-9787-e464fd7f4ff9",
      "resource": {
        "resourceType": "DeviceUseStatement",
        "id": "f1ebd612-0770-4771-9787-e464fd7f4ff9",
        "meta": {
          "profile": [
            "http://hl7.eu/fhir/eps/StructureDefinition/deviceUseStatement-eu-eps"
          ]
        },
        "timingPeriod": {
          "start": "1979-02-17"
        },
        "text": {
          "status": "generated",
          "div": "<div xmlns=\"http://www.w3.org/1999/xhtml\"><table class=\"hl7__ips\"><tr><td>Wheelchair accessory (physical object)</td><td><span class=\"nb\">17-Feb-1979</span></td></tr></table></div>"
        },
        "status": "active",
        "device": {
          "reference": "urn:uuid:d49142c9-e37c-4b59-8051-9571e521482c",
          "display": "Wheelchair accessory (physical object)"
        },
        "subject": {
          "reference": "urn:uuid:7d418f0c-5a3a-47eb-90e6-b509fbea37c0",
          "display": "Dorota Juśkiewicz"
        }
      }
    },
    {
      "fullUrl": "urn:uuid:d49142c9-e37c-4b59-8051-9571e521482c",
      "resource": {
        "resourceType": "Device",
        "id": "d49142c9-e37c-4b59-8051-9571e521482c",
        "meta": {
          "profile": [
            "http://hl7.eu/fhir/eps/StructureDefinition/device-eu-eps"
          ]
        },
        "udiCarrier": [
          {
            "id": "(01)76839956002425(11)790128(17)040212(10)62282514255(21)765531"
          }
        ],
        "status": "active",
        "patient": {
          "reference": "urn:uuid:7d418f0c-5a3a-47eb-90e6-b509fbea37c0",
          "display": "Dorota Juśkiewicz"
        },
        "type": {
          "coding": [
            {
              "code": "705417005",
              "system": "http://snomed.info/sct",
              "display": "Wheelchair accessory (physical object)"
            }
          ]
        }
      }
    },
    {
      "fullUrl": "urn:uuid:0c2f4099-a0c9-4421-95b3-6bc849e9d04a",
      "resource": {
        "resourceType": "DeviceUseStatement",
        "id": "0c2f4099-a0c9-4421-95b3-6bc849e9d04a",
        "meta": {
          "profile": [
            "http://hl7.eu/fhir/eps/StructureDefinition/deviceUseStatement-eu-eps"
          ]
        },
        "timingPeriod": {
          "start": "1971-12-07"
        },
        "text": {
          "status": "generated",
          "div": "<div xmlns=\"http://www.w3.org/1999/xhtml\"><table class=\"hl7__ips\"><tr><td>Blood glucose meter (physical object)</td><td><span class=\"nb\">07-Dec-1971</span></td></tr></table></div>"
        },
        "status": "active",
        "device": {
          "reference": "urn:uuid:2cbc147a-34f2-4c61-bd5d-48ec5284fdc7",
          "display": "Blood glucose meter (physical object)"
        },
        "subject": {
          "reference": "urn:uuid:7d418f0c-5a3a-47eb-90e6-b509fbea37c0",
          "display": "Dorota Juśkiewicz"
        }
      }
    },
    {
      "fullUrl": "urn:uuid:2cbc147a-34f2-4c61-bd5d-48ec5284fdc7",
      "resource": {
        "resourceType": "Device",
        "id": "2cbc147a-34f2-4c61-bd5d-48ec5284fdc7",
        "meta": {
          "profile": [
            "http://hl7.eu/fhir/eps/StructureDefinition/device-eu-eps"
          ]
        },
        "udiCarrier": [
          {
            "id": "(01)68882411289002(11)711117(17)961201(10)6760234971812812(21)641459"
          }
        ],
        "status": "active",
        "patient": {
          "reference": "urn:uuid:7d418f0c-5a3a-47eb-90e6-b509fbea37c0",
          "display": "Dorota Juśkiewicz"
        },
        "type": {
          "coding": [
            {
              "code": "337414009",
              "system": "http://snomed.info/sct",
              "display": "Blood glucose meter (physical object)"
            }
          ]
        }
      }
    },
    {
      "fullUrl": "urn:uuid:97c71140-0db6-4ce3-b831-1e35f06fa82b",
      "resource": {
        "resourceType": "Device",
        "id": "97c71140-0db6-4ce3-b831-1e35f06fa82b",
        "deviceName": [
          {
            "name": "SYNDERAI Synthetic Generator",
            "type": "manufacturer-name"
          }
        ],
        "version": [
          {
            "value": "5.0"
          }
        ],
        "text": {
          "status": "generated",
          "div": "<div xmlns=\"http://www.w3.org/1999/xhtml\">SYNDERAI Synthetic Generator v5.0</div>"
        },
        "status": "active",
        "distinctIdentifier": "synderai-generator-50",
        "manufacturer": "SYNDERAI Project"
      }
    },
    {
      "fullUrl": "urn:uuid:52bb091c-fd24-40af-a8dc-893ef185b3db",
      "resource": {
        "resourceType": "Provenance",
        "id": "52bb091c-fd24-40af-a8dc-893ef185b3db",
        "target": [
          {
            "reference": "Patient/7d418f0c-5a3a-47eb-90e6-b509fbea37c0"
          },
          {
            "reference": "Bundle/f56c5432-ee7c-4808-98d2-a832b0b1c2de"
          },
          {
            "reference": "Composition/ace9bfda-9c25-4a01-b892-d1fe39cfe815"
          },
          {
            "reference": "PractitionerRole/03667e88-b09c-4f07-b206-d89d51355689"
          },
          {
            "reference": "Organization/c55a7c3c-2d3d-4c7a-a8fc-5dc6ac350a13"
          },
          {
            "reference": "Practitioner/305a131a-fa8e-4a21-95fc-cb81fd4e7838"
          }
        ],
        "activity": {
          "text": "Synthetic Example Data Generation"
        },
        "policy": [
          "https://synderai.net/synderai-synthetic-data-policy"
        ],
        "agent": [
          {
            "type": {
              "text": "author"
            },
            "who": {
              "reference": "Device/97c71140-0db6-4ce3-b831-1e35f06fa82b"
            }
          }
        ],
        "reason": [
          {
            "text": "Interoperability Testing and Training (non-clinical use)"
          }
        ],
        "text": {
          "status": "generated",
          "div": "<div xmlns=\"http://www.w3.org/1999/xhtml\">Provenance for SYNDERAI Synthetic Example Data Resource</div>"
        },
        "recorded": "2025-07-15T23:50:08Z"
      }
    }
  ],
  "type": "document",
  "timestamp": "2025-07-15T23:50:08Z"
}
