{
  "resourceType": "Bundle",
  "id": "7c1ec098-4341-4c25-b4fb-2284c417f91b",
  "meta": {
    "profile": [
      "http://hl7.eu/fhir/eps/StructureDefinition/bundle-eu-eps"
    ]
  },
  "identifier": {
    "assigner": {
      "display": "HL7 Europe"
    },
    "system": "urn:oid:2.16.840.1.113883.2.51.999",
    "value": "ca6e5129-5840-4c1a-ba7b-0ff852fb2c63"
  },
  "entry": [
    {
      "fullUrl": "urn:uuid:ab659fb2-7808-4640-a20d-af4de2a1f307",
      "resource": {
        "resourceType": "Composition",
        "id": "ab659fb2-7808-4640-a20d-af4de2a1f307",
        "meta": {
          "security": [
            {
              "system": "http://terminology.hl7.org/CodeSystem/v3-ActReason",
              "code": "HTEST"
            },
            {
              "system": "http://terminology.hl7.org/CodeSystem/v3-ActReason",
              "code": "TRAIN"
            }
          ],
          "tag": [
            {
              "system": "https://synderai.net/fhir/CodeSystem/tags",
              "code": "synthetic",
              "display": "SYNDERAI Synthetic data"
            }
          ],
          "profile": [
            "http://hl7.eu/fhir/eps/StructureDefinition/composition-eu-eps"
          ]
        },
        "identifier": {
          "assigner": {
            "display": "HL7 Europe"
          },
          "system": "urn:oid:2.16.840.1.113883.2.51.999",
          "value": "45e42f78-49d0-4236-9e99-088bf7f88205"
        },
        "type": {
          "coding": [
            {
              "code": "60591-5",
              "system": "http://loinc.org",
              "display": "Patient summary Document"
            }
          ],
          "text": "Patient summary Document"
        },
        "author": [
          {
            "reference": "urn:uuid:251bf4e9-c508-4f69-b279-177aff3d8909"
          }
        ],
        "section": [
          {
            "text": {
              "status": "generated",
              "div": "<div xmlns=\"http://www.w3.org/1999/xhtml\"><table class=\"hl7__ips\"><tr><th>Condition</th><th>Onset Date</th><th>Status</th></tr><tr><td>Non-small cell lung cancer</td><td><span class=\"nb\">14-Nov-2024</span></td><td>active</td></tr><tr><td>Anemia</td><td><span class=\"nb\">14-Nov-2024</span></td><td>active</td></tr><tr><td>Neoplasm of prostate</td><td><span class=\"nb\">29-Mar-2023</span></td><td>active</td></tr><tr><td>Metastasis from malignant tumor of prostate</td><td><span class=\"nb\">29-Mar-2023</span></td><td>active</td></tr><tr><td>Ischemic heart disease</td><td><span class=\"nb\">04-Mar-2020</span></td><td>active</td></tr><tr><td>Gout</td><td><span class=\"nb\">31-May-1986</span></td><td>active</td></tr><tr><td>Major depressive disorder</td><td><span class=\"nb\">21-Feb-1979</span></td><td>active</td></tr><tr><td>Chronic sinusitis</td><td><span class=\"nb\">26-May-1974</span></td><td>active</td></tr></table></div>"
            },
            "entry": [
              {
                "reference": "urn:uuid:dbd393ec-5711-47fe-ad2e-ba71b3b93d6b"
              }
            ],
            "code": {
              "coding": [
                {
                  "system": "http://loinc.org",
                  "code": "11450-4",
                  "display": "Problem list - Reported"
                }
              ]
            },
            "title": "Problem list"
          },
          {
            "text": {
              "status": "generated",
              "div": "<div xmlns=\"http://www.w3.org/1999/xhtml\"><table class=\"hl7__ips\"><tr><td>No known medications</td></tr></table></div>"
            },
            "entry": [
              {
                "reference": "urn:uuid:1133a27d-3bb4-4ef6-9483-e8128c2b6312"
              }
            ],
            "code": {
              "coding": [
                {
                  "system": "http://loinc.org",
                  "code": "10160-0",
                  "display": "History of Medication use Narrative"
                }
              ]
            },
            "title": "Medication list"
          },
          {
            "text": {
              "status": "generated",
              "div": "<div xmlns=\"http://www.w3.org/1999/xhtml\"><table class=\"hl7__ips\"><tr><th>Vaccine</th><th>Date</th></tr><tr><td>Streptococcus pneumoniae Danish serotype 1</td><td><span class=\"nb\">02-Apr-2025</span></td></tr><tr><td>Influenza virus antigen only vaccine product</td><td><span class=\"nb\">30-Oct-2024</span></td></tr><tr><td>SARS-CoV-2 mRNA vaccine</td><td><span class=\"nb\">14-Apr-2021</span></td></tr><tr><td>Clostridium tetani toxoid antigen adsorbed only vaccine product</td><td><span class=\"nb\">10-Mar-2021</span></td></tr></table></div>"
            },
            "entry": [
              {
                "reference": "urn:uuid:19d5069b-9564-448b-92f8-1fc989827c0a"
              }
            ],
            "code": {
              "coding": [
                {
                  "system": "http://loinc.org",
                  "code": "11369-6",
                  "display": "History of Immunization note"
                }
              ]
            },
            "title": "Immunizations list"
          },
          {
            "text": {
              "status": "generated",
              "div": "<div xmlns=\"http://www.w3.org/1999/xhtml\"><table class=\"hl7__ips\"><tr><th>Procedure</th><th>Date</th><th>Reason</th></tr><tr><td>Hearing examination</td><td><span class=\"nb\">22-Jun-2025</span></td><td>-</td></tr><tr><td>Combined chemotherapy and radiation therapy</td><td><span class=\"nb\">22-Jun-2025</span></td><td>Non-small cell carcinoma of lung TNM stage 1 (disorder)</td></tr><tr><td>Suture open wound</td><td><span class=\"nb\">20-May-2025</span></td><td>Laceration of foot</td></tr><tr><td>High resolution computed tomography of chest without contrast</td><td><span class=\"nb\">11-Apr-2025</span></td><td>-</td></tr><tr><td>Patient discharge</td><td><span class=\"nb\">24-Feb-2025</span></td><td>-</td></tr><tr><td>Hospice care</td><td><span class=\"nb\">23-Feb-2025</span></td><td>-</td></tr><tr><td>Notifications</td><td><span class=\"nb\">15-Jan-2025</span></td><td>-</td></tr><tr><td>Certification procedure</td><td><span class=\"nb\">15-Jan-2025</span></td><td>-</td></tr><tr><td>Initial patient assessment</td><td><span class=\"nb\">15-Jan-2025</span></td><td>-</td></tr><tr><td>Development of individualized plan of care</td><td><span class=\"nb\">15-Jan-2025</span></td><td>-</td></tr><tr><td>Plain X-ray of chest</td><td><span class=\"nb\">20-Oct-2024</span></td><td>Suspected lung cancer (situation)</td></tr><tr><td>Assessment of health and social care needs</td><td><span class=\"nb\">24-Jan-2018</span></td><td>-</td></tr><tr><td>Assessment of anxiety</td><td><span class=\"nb\">24-Jan-2018</span></td><td>-</td></tr><tr><td>Assessment using AUDIT-C (Alcohol Use Disorders Identification Test - Consumption)</td><td><span class=\"nb\">24-Jan-2018</span></td><td>-</td></tr><tr><td>Assessment of substance use</td><td><span class=\"nb\">24-Jan-2018</span></td><td>-</td></tr></table></div>"
            },
            "entry": [
              {
                "reference": "urn:uuid:d0cc6107-052b-45aa-bcf2-30301b6f2752"
              }
            ],
            "code": {
              "coding": [
                {
                  "system": "http://loinc.org",
                  "code": "47519-4",
                  "display": "History of Procedures Document"
                }
              ]
            },
            "title": "Procedure History list"
          },
          {
            "text": {
              "status": "generated",
              "div": "<div xmlns=\"http://www.w3.org/1999/xhtml\"><table class=\"hl7__ips\"><tr><th>Allergy/Intolerance</th><th>Onset Date</th><th>Status</th><th>Type</th><th>Reaction</th></tr><tr><td>Cow's milk</td><td><span class=\"nb\">1961-04-22</span></td><td>active</td><td>food</td><td>Wheal (finding)</td></tr><tr><td>Mold</td><td><span class=\"nb\">1961-04-22</span></td><td>active</td><td>environment</td><td>Allergic skin rash</td></tr><tr><td>Grass pollen</td><td><span class=\"nb\">1961-04-22</span></td><td>active</td><td>environment</td><td></td></tr><tr><td>House dust mite</td><td><span class=\"nb\">1961-04-22</span></td><td>active</td><td>environment</td><td></td></tr><tr><td>Animal dander</td><td><span class=\"nb\">1961-04-22</span></td><td>active</td><td>environment</td><td>Rhinoconjunctivitis (disorder)&lt;br> &lt;/br>Cough (finding)</td></tr><tr><td>Wheat</td><td><span class=\"nb\">1961-04-22</span></td><td>active</td><td>food</td><td></td></tr><tr><td>Allergy to substance</td><td><span class=\"nb\">1961-04-22</span></td><td>active</td><td>environment</td><td></td></tr><tr><td>Shellfish</td><td><span class=\"nb\">1961-04-22</span></td><td>active</td><td>food</td><td>Anaphylaxis (disorder)&lt;br> &lt;/br>Eruption of skin (disorder)</td></tr><tr><td>Tree pollen</td><td><span class=\"nb\">1961-04-22</span></td><td>active</td><td>environment</td><td></td></tr></table></div>"
            },
            "entry": [
              {
                "reference": "urn:uuid:1ace23a5-fc28-467b-8606-41185d1411f6"
              }
            ],
            "code": {
              "coding": [
                {
                  "system": "http://loinc.org",
                  "code": "48765-2",
                  "display": "Allergies and adverse reactions Document"
                }
              ]
            },
            "title": "Allergies and Intolerances"
          },
          {
            "text": {
              "status": "generated",
              "div": "<div xmlns=\"http://www.w3.org/1999/xhtml\"><table class=\"hl7__ips\"><tr><th>Active Planned Care / Goals</th><th>Start Date</th><th>Reason</th></tr><tr><td>Terminal care</td><td><span class=\"nb\">16-Nov-2024</span></td><td>Non-small cell carcinoma of lung TNM stage 1 (disorder)</td></tr><tr><td><ul><li>Ensure optimal comfort and symptom control for the patient during terminal care for non-small cell lung cancer (TNM stage 1).</li><li>Maintain pain at or below patient-defined acceptable level during terminal care.</li><li>Reduce severity of dyspnea to a tolerable level for the patient.</li><li>Minimize anxiety and psychological distress to improve quality of life during terminal care.</li><li>Ensure adequate psychosocial and spiritual support for the patient and family during terminal care.</li></ul></td><td></td><td></td></tr><tr><td>Cancer care plan</td><td><span class=\"nb\">29-Mar-2023</span></td><td>Neoplasm of prostate</td></tr><tr><td><ul><li>Achieve remission or optimal control of prostate neoplasm to prevent further progression and metastasis</li><li>Maintain PSA at or below target threshold to monitor response to prostate cancer therapy</li><li>Minimize pain, urinary symptoms, and other complications related to prostate cancer and its metastases</li><li>Preserve or improve quality of life and functional status during cancer care</li></ul></td><td></td><td></td></tr><tr><td>Care plan</td><td><span class=\"nb\">21-Jan-2004</span></td><td>-</td></tr><tr><td>Musculoskeletal care</td><td><span class=\"nb\">31-May-1986</span></td><td>-</td></tr><tr><td>Psychiatry care plan</td><td><span class=\"nb\">14-Mar-1979</span></td><td>Major depression disorder</td></tr><tr><td><ul><li>Patient will achieve remission of depressive symptoms as measured by PHQ-9 score.</li><li>Patient will report improved ability to perform activities of daily living and social engagement.</li><li>Patient will report no suicidal ideation or intent.</li><li>Patient will attend scheduled psychiatric appointments and adhere to prescribed medications.</li></ul></td><td></td><td></td></tr><tr><td>Mental health care plan</td><td><span class=\"nb\">21-Feb-1979</span></td><td>Major depression single episode</td></tr><tr><td><ul><li>Patient will achieve remission of major depressive symptoms as measured by PHQ-9 score.</li><li>Patient will report improved ability to perform activities of daily living.</li><li>Patient will report no suicidal ideation.</li></ul></td><td></td><td></td></tr><tr><td>Major depressive disorder clinical management plan</td><td><span class=\"nb\">21-Feb-1979</span></td><td>Major depression disorder</td></tr><tr><td><ul><li>Patient will achieve remission of depressive symptoms as measured by standardized depression scale.</li><li>Patient will report improved ability to perform activities of daily living and increased quality of life.</li><li>Patient will not experience suicidal ideation or engage in self-harm behaviors.</li></ul></td><td></td><td></td></tr><tr><td>Self-care interventions</td><td><span class=\"nb\">11-Apr-1961</span></td><td>-</td></tr><tr><th>Immunization Recommendation</th><th>Due Date</th><th>Reason</th></tr><tr><td>Vaccine product containing only Influenza virus antigen (medicinal product)</td><td><span class=\"nb\">01-Oct-2025</span></td><td>Annual seasonal influenza vaccination</td></tr></table></div>"
            },
            "title": "Care Plan",
            "code": {
              "coding": [
                {
                  "code": "18776-5",
                  "system": "http://loinc.org",
                  "display": "Plan of care note"
                }
              ]
            }
          },
          {
            "text": {
              "status": "generated",
              "div": "<div xmlns=\"http://www.w3.org/1999/xhtml\"><table class=\"hl7__ips\"><tr><th>Vital Signs</th><th>2025-06-22</th><th>2025-06-21</th></tr><tr><td>Pain severity - 0-10 verbal numeric rating [Score] - Reported</td><td>7 {score}</td><td>7 {score}</td></tr></table></div>"
            },
            "entry": [
              {
                "reference": "urn:uuid:8510fbe7-994d-4cfa-835b-726d60b725a6"
              }
            ],
            "code": {
              "coding": [
                {
                  "system": "http://loinc.org",
                  "code": "8716-3",
                  "display": "Vital signs note"
                }
              ]
            },
            "title": "Vital Signs"
          },
          {
            "text": {
              "status": "generated",
              "div": "<div xmlns=\"http://www.w3.org/1999/xhtml\"><table class=\"hl7__ips\"><table class=\"hl7__ips\"><thead><tr><th>Recent Lab Observations</th><th>18-JUN-2025</th><th>Reference&#xA0;Range</th><th>Unit</th></tr></thead><tbody><tr><td>Glucose [Mass/volume] in Blood</td><td>87.7</td><td>70 - 99</td><td>mg/dL</td></tr><tr><td>Urea nitrogen [Mass/volume] in Blood</td><td>8.8</td><td>7 - 20</td><td>mg/dL</td></tr><tr><td>Creatinine [Mass/volume] in Blood</td><td><strong>2.9 H</strong></td><td>0.9 - 1.3</td><td>mg/dL</td></tr><tr><td>Calcium [Mass/volume] in Blood</td><td>10.0</td><td>8.5 - 10.5</td><td>mg/dL</td></tr><tr><td>Sodium [Moles/volume] in Blood</td><td>139.6</td><td>135 - 145</td><td>mmol/L</td></tr><tr><td>Potassium [Moles/volume] in Blood</td><td>4.6</td><td>3.5 - 5.3</td><td>mmol/L</td></tr><tr><td>Chloride [Moles/volume] in Blood</td><td><strong>110.3 H</strong></td><td>98 - 107</td><td>mmol/L</td></tr><tr><td>Carbon dioxide, total [Moles/volume] in Blood</td><td>27.9</td><td>24 - 29</td><td>mmol/L</td></tr><tr><td>Protein [Mass/volume] in Serum or Plasma</td><td>7.1</td><td>6.6 - 8.3</td><td>g/dL</td></tr><tr><td>Albumin [Mass/volume] in Serum or Plasma</td><td>5.4</td><td>3.5 - 5.5</td><td>g/dL</td></tr><tr><td>Globulin [Mass/volume] in Serum by calculation</td><td>2.0</td><td>2 - 3.5</td><td>g/L</td></tr><tr><td>Bilirubin.total [Mass/volume] in Serum or Plasma</td><td>1.0</td><td>0.2 - 1.2</td><td>mg/dL</td></tr><tr><td>Alkaline phosphatase [Enzymatic activity/volume] in Serum or Plasma</td><td>56.1</td><td>40 - 117</td><td>U/L</td></tr><tr><td>Alanine aminotransferase [Enzymatic activity/volume] in Serum or Plasma</td><td>40.3</td><td>7 - 63</td><td>U/L</td></tr><tr><td>Aspartate aminotransferase [Enzymatic activity/volume] in Serum or Plasma</td><td>18.5</td><td>10 - 40</td><td>U/L</td></tr><tr><td>Appearance of Urine</td><td>Cloudy urine</td><td></td><td></td></tr><tr><td>Odor of Urine</td><td>Urine smell ammoniacal</td><td></td><td></td></tr><tr><td>Clarity of Urine</td><td>Translucent</td><td></td><td></td></tr><tr><td>Color of Urine</td><td>Brown color</td><td></td><td></td></tr><tr><td>Glucose [Mass/volume] in Urine by Test strip</td><td><strong>1.2 H</strong></td><td>0 - 0.8</td><td>mg/dL</td></tr><tr><td>Glucose [Presence] in Urine by Test strip</td><td>++</td><td></td><td></td></tr><tr><td>Bilirubin.total [Mass/volume] in Urine by Test strip</td><td>0.8</td><td>0 - 1</td><td>mg/dL</td></tr><tr><td>Bilirubin.total [Presence] in Urine by Test strip</td><td>Finding of bilirubin in urine</td><td></td><td></td></tr><tr><td>Ketones [Mass/volume] in Urine by Test strip</td><td><strong>5.1 H</strong></td><td>0 - 4</td><td>mg/dL</td></tr><tr><td>Ketones [Presence] in Urine by Test strip</td><td>Urine ketone test = +++</td><td></td><td></td></tr><tr><td>Specific gravity of Urine by Test strip</td><td><strong>1.0 L</strong></td><td>1.005 - 1.03</td><td>{nominal}</td></tr><tr><td>pH of Urine by Test strip</td><td>7.0</td><td>4.5 - 7.5</td><td>pH</td></tr><tr><td>Protein [Mass/volume] in Urine by Test strip</td><td><strong>350.4 H</strong></td><td>0 - 150</td><td>mg/dL</td></tr><tr><td>Protein [Presence] in Urine by Test strip</td><td>Urine protein test = +++</td><td></td><td></td></tr><tr><td>Nitrite [Presence] in Urine by Test strip</td><td>Urine nitrite negative</td><td></td><td></td></tr><tr><td>Hemoglobin [Presence] in Urine by Test strip</td><td>Urine blood test = negative</td><td></td><td></td></tr><tr><td>Leukocyte esterase [Presence] in Urine by Test strip</td><td>Urine leukocyte test negative</td><td></td><td></td></tr><tr><td>Leukocytes [#/volume] in Blood by Automated count</td><td><strong>3.1 L</strong></td><td>3.4 - 10.6</td><td>10*3/uL</td></tr><tr><td>Erythrocytes [#/volume] in Blood by Automated count</td><td>5.5</td><td>4.82 - 5.72</td><td>10*6/uL</td></tr><tr><td>Hemoglobin [Mass/volume] in Blood</td><td><strong>12.1 L</strong></td><td>13.5 - 17.5</td><td>g/dL</td></tr><tr><td>Hematocrit [Volume Fraction] of Blood by Automated count</td><td>39.0</td><td>37 - 52</td><td>%</td></tr><tr><td>MCV [Entitic volume] by Automated count</td><td>89.0</td><td>82 - 98</td><td>fL</td></tr><tr><td>MCH [Entitic mass] by Automated count</td><td>30.3</td><td>27 - 33</td><td>pg</td></tr><tr><td>MCHC [Mass/volume] by Automated count</td><td>35.9</td><td>32 - 37</td><td>g/dL</td></tr><tr><td>Erythrocyte distribution width [Entitic volume] by Automated count</td><td>41.5</td><td>39 - 55</td><td>fL</td></tr><tr><td>Platelets [#/volume] in Blood by Automated count</td><td><strong>355.1 H</strong></td><td>150 - 344</td><td>10*3/uL</td></tr><tr><td>Platelet distribution width [Entitic volume] in Blood by Automated count</td><td><strong>455.5 H</strong></td><td>13.4 - 17.4</td><td>fL</td></tr><tr><td>Platelet mean volume [Entitic volume] in Blood by Automated count</td><td>10.6</td><td>7.2 - 13.5</td><td>fL</td></tr></tbody></table></table></div>"
            },
            "title": "Relevant diagnostic tests/laboratory data",
            "code": {
              "coding": [
                {
                  "code": "30954-2",
                  "system": "http://loinc.org",
                  "display": "Relevant diagnostic tests/laboratory data note"
                }
              ]
            }
          },
          {
            "text": {
              "status": "generated",
              "div": "<div xmlns=\"http://www.w3.org/1999/xhtml\"><table class=\"hl7__ips\"><tr><th>Device</th><th>Date (since)</th></tr><tr><td>Home nebulizer (physical object)</td><td><span class=\"nb\">26-May-1974</span></td></tr></table></div>"
            },
            "entry": [
              {
                "reference": "urn:uuid:37e238be-e897-4cbc-bc34-601a7b117c88"
              }
            ],
            "code": {
              "coding": [
                {
                  "system": "http://loinc.org",
                  "code": "46264-8",
                  "display": "History of medical device use"
                }
              ]
            },
            "title": "Device Use"
          }
        ],
        "title": "European Patient Summary",
        "status": "final",
        "subject": {
          "reference": "urn:uuid:1e581e72-c723-4b29-a01e-82a12e7f8edd",
          "display": "Ignazio Comboni"
        },
        "custodian": {
          "reference": "urn:uuid:4f2f45f6-699a-4e0a-a435-992a8e94bcdc"
        },
        "date": "2025-06-18",
        "confidentiality": "N"
      }
    },
    {
      "fullUrl": "urn:uuid:1e581e72-c723-4b29-a01e-82a12e7f8edd",
      "resource": {
        "resourceType": "Patient",
        "id": "1e581e72-c723-4b29-a01e-82a12e7f8edd",
        "meta": {
          "security": [
            {
              "system": "http://terminology.hl7.org/CodeSystem/v3-ActReason",
              "code": "HTEST"
            },
            {
              "system": "http://terminology.hl7.org/CodeSystem/v3-ActReason",
              "code": "TRAIN"
            }
          ],
          "tag": [
            {
              "system": "https://synderai.net/fhir/CodeSystem/tags",
              "code": "synthetic",
              "display": "SYNDERAI Synthetic data"
            }
          ],
          "profile": [
            "http://hl7.eu/fhir/eps/StructureDefinition/patient-eu-eps"
          ]
        },
        "identifier": [
          {
            "type": {
              "coding": [
                {
                  "code": "PT",
                  "system": "http://terminology.hl7.org/CodeSystem/v2-0203"
                }
              ]
            },
            "system": "http://ec.europa.eu/identifier/eci",
            "value": "9078-308345-5"
          },
          {
            "type": {
              "coding": [
                {
                  "code": "MR",
                  "system": "http://terminology.hl7.org/CodeSystem/v2-0203"
                }
              ]
            },
            "system": "http://local.setting.eu/identifier",
            "value": "eb07d4a5-5c29-bbdd-111a-9cca1c40563f"
          }
        ],
        "name": [
          {
            "given": [
              "Ignazio"
            ],
            "family": "Comboni",
            "text": "Ignazio Comboni"
          }
        ],
        "address": [
          {
            "line": [
              "Piazza Gaspare, 97"
            ],
            "use": "home",
            "type": "physical",
            "postalCode": "84091",
            "city": "Santa Lucia Di Battipaglia",
            "country": "Italy"
          }
        ],
        "telecom": [
          {
            "system": "phone",
            "value": "+39 0471333542"
          }
        ],
        "extension": [
          {
            "url": "http://hl7.org/fhir/StructureDefinition/patient-nationality",
            "valueCodeableConcept": {
              "coding": [
                {
                  "code": "IT",
                  "system": "http://hl7.org/fhir/ValueSet/country"
                }
              ]
            }
          }
        ],
        "text": {
          "status": "generated",
          "div": "<div xmlns=\"http://www.w3.org/1999/xhtml\"><table class=\"hl7__ips\"><tr><td>Ignazio Comboni</td><td>male</td><td>25-Oct-1961</td></tr></table></div>"
        },
        "gender": "male",
        "birthDate": "1961-10-25"
      }
    },
    {
      "fullUrl": "urn:uuid:251bf4e9-c508-4f69-b279-177aff3d8909",
      "resource": {
        "resourceType": "PractitionerRole",
        "id": "251bf4e9-c508-4f69-b279-177aff3d8909",
        "meta": {
          "profile": [
            "http://hl7.eu/fhir/base/StructureDefinition/practitionerRole-eu"
          ]
        },
        "text": {
          "status": "generated",
          "div": "<div xmlns=\"http://www.w3.org/1999/xhtml\"><table class=\"hl7__ips\">Provider Role Id 251bf4e9-c508-4f69-b279-177aff3d8909</table></div>"
        },
        "practitioner": {
          "reference": "urn:uuid:e9ca33b8-3dbf-480a-ab63-63059cc555c5"
        },
        "organization": {
          "reference": "urn:uuid:4f2f45f6-699a-4e0a-a435-992a8e94bcdc"
        }
      }
    },
    {
      "fullUrl": "urn:uuid:4f2f45f6-699a-4e0a-a435-992a8e94bcdc",
      "resource": {
        "resourceType": "Organization",
        "id": "4f2f45f6-699a-4e0a-a435-992a8e94bcdc",
        "meta": {
          "profile": [
            "http://hl7.eu/fhir/base/StructureDefinition/organization-eu"
          ]
        },
        "identifier": [
          {
            "assigner": {
              "display": "HL7 Europe"
            },
            "system": "urn:oid:2.16.840.1.113883.2.51.999",
            "value": "fe5efeeb-b3b3-4bbb-ae74-26c7c797939d"
          }
        ],
        "address": [
          {
            "line": [
              "Via Federico Confalonieri 4"
            ],
            "city": "Battipaglia",
            "postalCode": "84091",
            "country": "Italy"
          }
        ],
        "text": {
          "status": "generated",
          "div": "<div xmlns=\"http://www.w3.org/1999/xhtml\"><table class=\"hl7__ips\">Clinica Salus</table></div>"
        },
        "name": "Clinica Salus"
      }
    },
    {
      "fullUrl": "urn:uuid:e9ca33b8-3dbf-480a-ab63-63059cc555c5",
      "resource": {
        "resourceType": "Practitioner",
        "id": "e9ca33b8-3dbf-480a-ab63-63059cc555c5",
        "meta": {
          "profile": [
            "http://hl7.eu/fhir/base/StructureDefinition/practitioner-eu"
          ]
        },
        "name": [
          {
            "prefix": [
              "Dr."
            ],
            "given": [
              "Hel"
            ],
            "family": "Ping"
          }
        ],
        "text": {
          "status": "generated",
          "div": "<div xmlns=\"http://www.w3.org/1999/xhtml\"><table class=\"hl7__ips\">Dr. Hel Ping</table></div>"
        }
      }
    },
    {
      "fullUrl": "urn:uuid:dbd393ec-5711-47fe-ad2e-ba71b3b93d6b",
      "resource": {
        "resourceType": "Condition",
        "id": "dbd393ec-5711-47fe-ad2e-ba71b3b93d6b",
        "meta": {
          "profile": [
            "http://hl7.org/fhir/uv/ips/StructureDefinition/Condition-uv-ips"
          ]
        },
        "category": [
          {
            "coding": [
              {
                "code": "problem-list-item",
                "system": "http://terminology.hl7.org/CodeSystem/condition-category",
                "display": "Problem List Item"
              }
            ]
          }
        ],
        "code": {
          "coding": [
            {
              "code": "254637007",
              "system": "http://snomed.info/sct",
              "display": "Non-small cell lung cancer (disorder)"
            }
          ],
          "text": "Non-small cell lung cancer"
        },
        "text": {
          "status": "generated",
          "div": "<div xmlns=\"http://www.w3.org/1999/xhtml\"><table class=\"hl7__ips\"><tr><td>Non-small cell lung cancer</td><td><span class=\"nb\">14-Nov-2024</span></td><td>active</td></tr></table></div>"
        },
        "onsetDateTime": "2024-11-14",
        "subject": {
          "reference": "urn:uuid:1e581e72-c723-4b29-a01e-82a12e7f8edd",
          "display": "Ignazio Comboni"
        },
        "asserter": {
          "reference": "urn:uuid:251bf4e9-c508-4f69-b279-177aff3d8909",
          "display": "Clinica Salus"
        }
      }
    },
    {
      "fullUrl": "urn:uuid:ad53527e-1be5-41e9-a884-980c849a765d",
      "resource": {
        "resourceType": "Condition",
        "id": "ad53527e-1be5-41e9-a884-980c849a765d",
        "meta": {
          "profile": [
            "http://hl7.org/fhir/uv/ips/StructureDefinition/Condition-uv-ips"
          ]
        },
        "category": [
          {
            "coding": [
              {
                "code": "problem-list-item",
                "system": "http://terminology.hl7.org/CodeSystem/condition-category",
                "display": "Problem List Item"
              }
            ]
          }
        ],
        "code": {
          "coding": [
            {
              "code": "271737000",
              "system": "http://snomed.info/sct",
              "display": "Anemia (disorder)"
            }
          ],
          "text": "Anemia"
        },
        "text": {
          "status": "generated",
          "div": "<div xmlns=\"http://www.w3.org/1999/xhtml\"><table class=\"hl7__ips\"><tr><td>Anemia</td><td><span class=\"nb\">14-Nov-2024</span></td><td>active</td></tr></table></div>"
        },
        "onsetDateTime": "2024-11-14",
        "subject": {
          "reference": "urn:uuid:1e581e72-c723-4b29-a01e-82a12e7f8edd",
          "display": "Ignazio Comboni"
        },
        "asserter": {
          "reference": "urn:uuid:251bf4e9-c508-4f69-b279-177aff3d8909",
          "display": "Clinica Salus"
        }
      }
    },
    {
      "fullUrl": "urn:uuid:4cc3f6e7-62dc-4bed-88fe-20ac0a0fd5a3",
      "resource": {
        "resourceType": "Condition",
        "id": "4cc3f6e7-62dc-4bed-88fe-20ac0a0fd5a3",
        "meta": {
          "profile": [
            "http://hl7.org/fhir/uv/ips/StructureDefinition/Condition-uv-ips"
          ]
        },
        "category": [
          {
            "coding": [
              {
                "code": "problem-list-item",
                "system": "http://terminology.hl7.org/CodeSystem/condition-category",
                "display": "Problem List Item"
              }
            ]
          }
        ],
        "code": {
          "coding": [
            {
              "code": "126906006",
              "system": "http://snomed.info/sct",
              "display": "Neoplasm of prostate (disorder)"
            }
          ],
          "text": "Neoplasm of prostate"
        },
        "text": {
          "status": "generated",
          "div": "<div xmlns=\"http://www.w3.org/1999/xhtml\"><table class=\"hl7__ips\"><tr><td>Neoplasm of prostate</td><td><span class=\"nb\">29-Mar-2023</span></td><td>active</td></tr></table></div>"
        },
        "onsetDateTime": "2023-03-29",
        "subject": {
          "reference": "urn:uuid:1e581e72-c723-4b29-a01e-82a12e7f8edd",
          "display": "Ignazio Comboni"
        },
        "asserter": {
          "reference": "urn:uuid:251bf4e9-c508-4f69-b279-177aff3d8909",
          "display": "Clinica Salus"
        }
      }
    },
    {
      "fullUrl": "urn:uuid:ae6e98bd-6d28-4a89-aa14-fd8f9a7b6432",
      "resource": {
        "resourceType": "Condition",
        "id": "ae6e98bd-6d28-4a89-aa14-fd8f9a7b6432",
        "meta": {
          "profile": [
            "http://hl7.org/fhir/uv/ips/StructureDefinition/Condition-uv-ips"
          ]
        },
        "category": [
          {
            "coding": [
              {
                "code": "problem-list-item",
                "system": "http://terminology.hl7.org/CodeSystem/condition-category",
                "display": "Problem List Item"
              }
            ]
          }
        ],
        "code": {
          "coding": [
            {
              "code": "314994000",
              "system": "http://snomed.info/sct",
              "display": "Metastasis from malignant tumor of prostate (disorder)"
            }
          ],
          "text": "Metastasis from malignant tumor of prostate"
        },
        "text": {
          "status": "generated",
          "div": "<div xmlns=\"http://www.w3.org/1999/xhtml\"><table class=\"hl7__ips\"><tr><td>Metastasis from malignant tumor of prostate</td><td><span class=\"nb\">29-Mar-2023</span></td><td>active</td></tr></table></div>"
        },
        "onsetDateTime": "2023-03-29",
        "subject": {
          "reference": "urn:uuid:1e581e72-c723-4b29-a01e-82a12e7f8edd",
          "display": "Ignazio Comboni"
        },
        "asserter": {
          "reference": "urn:uuid:251bf4e9-c508-4f69-b279-177aff3d8909",
          "display": "Clinica Salus"
        }
      }
    },
    {
      "fullUrl": "urn:uuid:881e90de-4d0e-40be-855b-9cd1fa93ab04",
      "resource": {
        "resourceType": "Condition",
        "id": "881e90de-4d0e-40be-855b-9cd1fa93ab04",
        "meta": {
          "profile": [
            "http://hl7.org/fhir/uv/ips/StructureDefinition/Condition-uv-ips"
          ]
        },
        "category": [
          {
            "coding": [
              {
                "code": "problem-list-item",
                "system": "http://terminology.hl7.org/CodeSystem/condition-category",
                "display": "Problem List Item"
              }
            ]
          }
        ],
        "code": {
          "coding": [
            {
              "code": "414545008",
              "system": "http://snomed.info/sct",
              "display": "Ischemic heart disease (disorder)"
            }
          ],
          "text": "Ischemic heart disease"
        },
        "text": {
          "status": "generated",
          "div": "<div xmlns=\"http://www.w3.org/1999/xhtml\"><table class=\"hl7__ips\"><tr><td>Ischemic heart disease</td><td><span class=\"nb\">04-Mar-2020</span></td><td>active</td></tr></table></div>"
        },
        "onsetDateTime": "2020-03-04",
        "subject": {
          "reference": "urn:uuid:1e581e72-c723-4b29-a01e-82a12e7f8edd",
          "display": "Ignazio Comboni"
        },
        "asserter": {
          "reference": "urn:uuid:251bf4e9-c508-4f69-b279-177aff3d8909",
          "display": "Clinica Salus"
        }
      }
    },
    {
      "fullUrl": "urn:uuid:67ed1b10-8a02-4308-9f4d-4d2f6d461d8f",
      "resource": {
        "resourceType": "Condition",
        "id": "67ed1b10-8a02-4308-9f4d-4d2f6d461d8f",
        "meta": {
          "profile": [
            "http://hl7.org/fhir/uv/ips/StructureDefinition/Condition-uv-ips"
          ]
        },
        "category": [
          {
            "coding": [
              {
                "code": "problem-list-item",
                "system": "http://terminology.hl7.org/CodeSystem/condition-category",
                "display": "Problem List Item"
              }
            ]
          }
        ],
        "code": {
          "coding": [
            {
              "code": "90560007",
              "system": "http://snomed.info/sct",
              "display": "Gout (disorder)"
            }
          ],
          "text": "Gout"
        },
        "text": {
          "status": "generated",
          "div": "<div xmlns=\"http://www.w3.org/1999/xhtml\"><table class=\"hl7__ips\"><tr><td>Gout</td><td><span class=\"nb\">31-May-1986</span></td><td>active</td></tr></table></div>"
        },
        "onsetDateTime": "1986-05-31",
        "subject": {
          "reference": "urn:uuid:1e581e72-c723-4b29-a01e-82a12e7f8edd",
          "display": "Ignazio Comboni"
        },
        "asserter": {
          "reference": "urn:uuid:251bf4e9-c508-4f69-b279-177aff3d8909",
          "display": "Clinica Salus"
        }
      }
    },
    {
      "fullUrl": "urn:uuid:08bceadd-4fb8-412d-baa6-294eb7827790",
      "resource": {
        "resourceType": "Condition",
        "id": "08bceadd-4fb8-412d-baa6-294eb7827790",
        "meta": {
          "profile": [
            "http://hl7.org/fhir/uv/ips/StructureDefinition/Condition-uv-ips"
          ]
        },
        "category": [
          {
            "coding": [
              {
                "code": "problem-list-item",
                "system": "http://terminology.hl7.org/CodeSystem/condition-category",
                "display": "Problem List Item"
              }
            ]
          }
        ],
        "code": {
          "coding": [
            {
              "code": "370143000",
              "system": "http://snomed.info/sct",
              "display": "Major depressive disorder (disorder)"
            }
          ],
          "text": "Major depressive disorder"
        },
        "text": {
          "status": "generated",
          "div": "<div xmlns=\"http://www.w3.org/1999/xhtml\"><table class=\"hl7__ips\"><tr><td>Major depressive disorder</td><td><span class=\"nb\">21-Feb-1979</span></td><td>active</td></tr></table></div>"
        },
        "onsetDateTime": "1979-02-21",
        "subject": {
          "reference": "urn:uuid:1e581e72-c723-4b29-a01e-82a12e7f8edd",
          "display": "Ignazio Comboni"
        },
        "asserter": {
          "reference": "urn:uuid:251bf4e9-c508-4f69-b279-177aff3d8909",
          "display": "Clinica Salus"
        }
      }
    },
    {
      "fullUrl": "urn:uuid:bc0e6fa2-31df-437f-9cb1-6d13c771612b",
      "resource": {
        "resourceType": "Condition",
        "id": "bc0e6fa2-31df-437f-9cb1-6d13c771612b",
        "meta": {
          "profile": [
            "http://hl7.org/fhir/uv/ips/StructureDefinition/Condition-uv-ips"
          ]
        },
        "category": [
          {
            "coding": [
              {
                "code": "problem-list-item",
                "system": "http://terminology.hl7.org/CodeSystem/condition-category",
                "display": "Problem List Item"
              }
            ]
          }
        ],
        "code": {
          "coding": [
            {
              "code": "40055000",
              "system": "http://snomed.info/sct",
              "display": "Chronic sinusitis (disorder)"
            }
          ],
          "text": "Chronic sinusitis"
        },
        "text": {
          "status": "generated",
          "div": "<div xmlns=\"http://www.w3.org/1999/xhtml\"><table class=\"hl7__ips\"><tr><td>Chronic sinusitis</td><td><span class=\"nb\">26-May-1974</span></td><td>active</td></tr></table></div>"
        },
        "onsetDateTime": "1974-05-26",
        "subject": {
          "reference": "urn:uuid:1e581e72-c723-4b29-a01e-82a12e7f8edd",
          "display": "Ignazio Comboni"
        },
        "asserter": {
          "reference": "urn:uuid:251bf4e9-c508-4f69-b279-177aff3d8909",
          "display": "Clinica Salus"
        }
      }
    },
    {
      "fullUrl": "urn:uuid:c13026ef-bc98-45ae-bae1-e9f666fcf2da",
      "resource": {
        "resourceType": "Condition",
        "id": "c13026ef-bc98-45ae-bae1-e9f666fcf2da",
        "meta": {
          "profile": [
            "http://hl7.org/fhir/uv/ips/StructureDefinition/Condition-uv-ips"
          ]
        },
        "category": [
          {
            "coding": [
              {
                "code": "problem-list-item",
                "system": "http://terminology.hl7.org/CodeSystem/condition-category",
                "display": "Problem List Item"
              }
            ]
          }
        ],
        "code": {
          "coding": [
            {
              "code": "284551006",
              "system": "http://snomed.info/sct",
              "display": "Laceration of foot (disorder)"
            }
          ],
          "text": "Laceration of foot"
        },
        "text": {
          "status": "generated",
          "div": "<div xmlns=\"http://www.w3.org/1999/xhtml\"><table class=\"hl7__ips\"><tr><td><span class=\"grayedout\">Laceration of foot</span></td><td><span class=\"nb\">20-May-2025 - 11-Jun-2025</span></td><td><span class=\"grayedout\">inactive</span></td></tr></table></div>"
        },
        "onsetDateTime": "2025-05-20",
        "abatementDateTime": "2025-06-11",
        "subject": {
          "reference": "urn:uuid:1e581e72-c723-4b29-a01e-82a12e7f8edd",
          "display": "Ignazio Comboni"
        },
        "asserter": {
          "reference": "urn:uuid:251bf4e9-c508-4f69-b279-177aff3d8909",
          "display": "Clinica Salus"
        }
      }
    },
    {
      "fullUrl": "urn:uuid:4aeb4870-821b-43d2-97bd-ba982321956f",
      "resource": {
        "resourceType": "Condition",
        "id": "4aeb4870-821b-43d2-97bd-ba982321956f",
        "meta": {
          "profile": [
            "http://hl7.org/fhir/uv/ips/StructureDefinition/Condition-uv-ips"
          ]
        },
        "category": [
          {
            "coding": [
              {
                "code": "problem-list-item",
                "system": "http://terminology.hl7.org/CodeSystem/condition-category",
                "display": "Problem List Item"
              }
            ]
          }
        ],
        "code": {
          "coding": [
            {
              "code": "312608009",
              "system": "http://snomed.info/sct",
              "display": "Laceration - injury (disorder)"
            }
          ],
          "text": "Laceration - injury"
        },
        "text": {
          "status": "generated",
          "div": "<div xmlns=\"http://www.w3.org/1999/xhtml\"><table class=\"hl7__ips\"><tr><td><span class=\"grayedout\">Laceration - injury</span></td><td><span class=\"nb\">20-May-2025 - 11-Jun-2025</span></td><td><span class=\"grayedout\">inactive</span></td></tr></table></div>"
        },
        "onsetDateTime": "2025-05-20",
        "abatementDateTime": "2025-06-11",
        "subject": {
          "reference": "urn:uuid:1e581e72-c723-4b29-a01e-82a12e7f8edd",
          "display": "Ignazio Comboni"
        },
        "asserter": {
          "reference": "urn:uuid:251bf4e9-c508-4f69-b279-177aff3d8909",
          "display": "Clinica Salus"
        }
      }
    },
    {
      "fullUrl": "urn:uuid:45be4782-29a6-40d3-8b67-962b86eb3674",
      "resource": {
        "resourceType": "Condition",
        "id": "45be4782-29a6-40d3-8b67-962b86eb3674",
        "meta": {
          "profile": [
            "http://hl7.org/fhir/uv/ips/StructureDefinition/Condition-uv-ips"
          ]
        },
        "category": [
          {
            "coding": [
              {
                "code": "problem-list-item",
                "system": "http://terminology.hl7.org/CodeSystem/condition-category",
                "display": "Problem List Item"
              }
            ]
          }
        ],
        "code": {
          "coding": [
            {
              "code": "195662009",
              "system": "http://snomed.info/sct",
              "display": "Acute viral pharyngitis (disorder)"
            }
          ],
          "text": "Acute viral pharyngitis"
        },
        "text": {
          "status": "generated",
          "div": "<div xmlns=\"http://www.w3.org/1999/xhtml\"><table class=\"hl7__ips\"><tr><td><span class=\"grayedout\">Acute viral pharyngitis</span></td><td><span class=\"nb\">26-Aug-2024 - 03-Sep-2024</span></td><td><span class=\"grayedout\">inactive</span></td></tr></table></div>"
        },
        "onsetDateTime": "2024-08-26",
        "abatementDateTime": "2024-09-03",
        "subject": {
          "reference": "urn:uuid:1e581e72-c723-4b29-a01e-82a12e7f8edd",
          "display": "Ignazio Comboni"
        },
        "asserter": {
          "reference": "urn:uuid:251bf4e9-c508-4f69-b279-177aff3d8909",
          "display": "Clinica Salus"
        }
      }
    },
    {
      "fullUrl": "urn:uuid:af0173cf-702e-4cb4-9e76-df56c2527664",
      "resource": {
        "resourceType": "Condition",
        "id": "af0173cf-702e-4cb4-9e76-df56c2527664",
        "meta": {
          "profile": [
            "http://hl7.org/fhir/uv/ips/StructureDefinition/Condition-uv-ips"
          ]
        },
        "category": [
          {
            "coding": [
              {
                "code": "problem-list-item",
                "system": "http://terminology.hl7.org/CodeSystem/condition-category",
                "display": "Problem List Item"
              }
            ]
          }
        ],
        "code": {
          "coding": [
            {
              "code": "43878008",
              "system": "http://snomed.info/sct",
              "display": "Streptococcal sore throat (disorder)"
            }
          ],
          "text": "Streptococcal sore throat"
        },
        "text": {
          "status": "generated",
          "div": "<div xmlns=\"http://www.w3.org/1999/xhtml\"><table class=\"hl7__ips\"><tr><td><span class=\"grayedout\">Streptococcal sore throat</span></td><td><span class=\"nb\">16-Aug-2023 - 30-Aug-2023</span></td><td><span class=\"grayedout\">inactive</span></td></tr></table></div>"
        },
        "onsetDateTime": "2023-08-16",
        "abatementDateTime": "2023-08-30",
        "subject": {
          "reference": "urn:uuid:1e581e72-c723-4b29-a01e-82a12e7f8edd",
          "display": "Ignazio Comboni"
        },
        "asserter": {
          "reference": "urn:uuid:251bf4e9-c508-4f69-b279-177aff3d8909",
          "display": "Clinica Salus"
        }
      }
    },
    {
      "fullUrl": "urn:uuid:419bd7fe-4a7f-43ae-be9b-51127527cf1f",
      "resource": {
        "resourceType": "Condition",
        "id": "419bd7fe-4a7f-43ae-be9b-51127527cf1f",
        "meta": {
          "profile": [
            "http://hl7.org/fhir/uv/ips/StructureDefinition/Condition-uv-ips"
          ]
        },
        "category": [
          {
            "coding": [
              {
                "code": "problem-list-item",
                "system": "http://terminology.hl7.org/CodeSystem/condition-category",
                "display": "Problem List Item"
              }
            ]
          }
        ],
        "code": {
          "coding": [
            {
              "code": "444814009",
              "system": "http://snomed.info/sct",
              "display": "Viral sinusitis (disorder)"
            }
          ],
          "text": "Viral sinusitis"
        },
        "text": {
          "status": "generated",
          "div": "<div xmlns=\"http://www.w3.org/1999/xhtml\"><table class=\"hl7__ips\"><tr><td><span class=\"grayedout\">Viral sinusitis</span></td><td><span class=\"nb\">19-Nov-2021 - 14-Dec-2021</span></td><td><span class=\"grayedout\">inactive</span></td></tr></table></div>"
        },
        "onsetDateTime": "2021-11-19",
        "abatementDateTime": "2021-12-14",
        "subject": {
          "reference": "urn:uuid:1e581e72-c723-4b29-a01e-82a12e7f8edd",
          "display": "Ignazio Comboni"
        },
        "asserter": {
          "reference": "urn:uuid:251bf4e9-c508-4f69-b279-177aff3d8909",
          "display": "Clinica Salus"
        }
      }
    },
    {
      "fullUrl": "urn:uuid:979a4452-c1e8-473b-b280-6b69ab169ec7",
      "resource": {
        "resourceType": "Condition",
        "id": "979a4452-c1e8-473b-b280-6b69ab169ec7",
        "meta": {
          "profile": [
            "http://hl7.org/fhir/uv/ips/StructureDefinition/Condition-uv-ips"
          ]
        },
        "category": [
          {
            "coding": [
              {
                "code": "problem-list-item",
                "system": "http://terminology.hl7.org/CodeSystem/condition-category",
                "display": "Problem List Item"
              }
            ]
          }
        ],
        "code": {
          "coding": [
            {
              "code": "10509002",
              "system": "http://snomed.info/sct",
              "display": "Acute bronchitis (disorder)"
            }
          ],
          "text": "Acute bronchitis"
        },
        "text": {
          "status": "generated",
          "div": "<div xmlns=\"http://www.w3.org/1999/xhtml\"><table class=\"hl7__ips\"><tr><td><span class=\"grayedout\">Acute bronchitis</span></td><td><span class=\"nb\">18-Aug-2019 - 01-Sep-2019</span></td><td><span class=\"grayedout\">inactive</span></td></tr></table></div>"
        },
        "onsetDateTime": "2019-08-18",
        "abatementDateTime": "2019-09-01",
        "subject": {
          "reference": "urn:uuid:1e581e72-c723-4b29-a01e-82a12e7f8edd",
          "display": "Ignazio Comboni"
        },
        "asserter": {
          "reference": "urn:uuid:251bf4e9-c508-4f69-b279-177aff3d8909",
          "display": "Clinica Salus"
        }
      }
    },
    {
      "fullUrl": "urn:uuid:60a80796-aeaf-4ad6-9290-d6fea2ff32d5",
      "resource": {
        "resourceType": "Condition",
        "id": "60a80796-aeaf-4ad6-9290-d6fea2ff32d5",
        "meta": {
          "profile": [
            "http://hl7.org/fhir/uv/ips/StructureDefinition/Condition-uv-ips"
          ]
        },
        "category": [
          {
            "coding": [
              {
                "code": "problem-list-item",
                "system": "http://terminology.hl7.org/CodeSystem/condition-category",
                "display": "Problem List Item"
              }
            ]
          }
        ],
        "code": {
          "coding": [
            {
              "code": "10509002",
              "system": "http://snomed.info/sct",
              "display": "Acute bronchitis (disorder)"
            }
          ],
          "text": "Acute bronchitis"
        },
        "text": {
          "status": "generated",
          "div": "<div xmlns=\"http://www.w3.org/1999/xhtml\"><table class=\"hl7__ips\"><tr><td><span class=\"grayedout\">Acute bronchitis</span></td><td><span class=\"nb\">15-Jan-2018 - 22-Jan-2018</span></td><td><span class=\"grayedout\">inactive</span></td></tr></table></div>"
        },
        "onsetDateTime": "2018-01-15",
        "abatementDateTime": "2018-01-22",
        "subject": {
          "reference": "urn:uuid:1e581e72-c723-4b29-a01e-82a12e7f8edd",
          "display": "Ignazio Comboni"
        },
        "asserter": {
          "reference": "urn:uuid:251bf4e9-c508-4f69-b279-177aff3d8909",
          "display": "Clinica Salus"
        }
      }
    },
    {
      "fullUrl": "urn:uuid:e57df0cf-cdc4-4a81-b9a7-7c4413dd17e3",
      "resource": {
        "resourceType": "Condition",
        "id": "e57df0cf-cdc4-4a81-b9a7-7c4413dd17e3",
        "meta": {
          "profile": [
            "http://hl7.org/fhir/uv/ips/StructureDefinition/Condition-uv-ips"
          ]
        },
        "category": [
          {
            "coding": [
              {
                "code": "problem-list-item",
                "system": "http://terminology.hl7.org/CodeSystem/condition-category",
                "display": "Problem List Item"
              }
            ]
          }
        ],
        "code": {
          "coding": [
            {
              "code": "44465007",
              "system": "http://snomed.info/sct",
              "display": "Sprain of ankle (disorder)"
            }
          ],
          "text": "Sprain of ankle"
        },
        "text": {
          "status": "generated",
          "div": "<div xmlns=\"http://www.w3.org/1999/xhtml\"><table class=\"hl7__ips\"><tr><td><span class=\"grayedout\">Sprain of ankle</span></td><td><span class=\"nb\">03-Aug-2016 - 27-Aug-2016</span></td><td><span class=\"grayedout\">inactive</span></td></tr></table></div>"
        },
        "onsetDateTime": "2016-08-03",
        "abatementDateTime": "2016-08-27",
        "subject": {
          "reference": "urn:uuid:1e581e72-c723-4b29-a01e-82a12e7f8edd",
          "display": "Ignazio Comboni"
        },
        "asserter": {
          "reference": "urn:uuid:251bf4e9-c508-4f69-b279-177aff3d8909",
          "display": "Clinica Salus"
        }
      }
    },
    {
      "fullUrl": "urn:uuid:1133a27d-3bb4-4ef6-9483-e8128c2b6312",
      "resource": {
        "resourceType": "MedicationStatement",
        "id": "1133a27d-3bb4-4ef6-9483-e8128c2b6312",
        "meta": {
          "profile": [
            "http://hl7.eu/fhir/eps/StructureDefinition/MedicationStatement-eu-eps"
          ]
        },
        "effectivePeriod": {
          "extension": [
            {
              "url": "http://hl7.org/fhir/StructureDefinition/data-absent-reason",
              "valueCode": "unknown"
            }
          ]
        },
        "status": "active",
        "medicationCodeableConcept": {
          "coding": [
            {
              "code": "787481004",
              "system": "http://snomed.info/sct",
              "display": "No known medications (situation)"
            }
          ]
        },
        "subject": {
          "reference": "urn:uuid:1e581e72-c723-4b29-a01e-82a12e7f8edd",
          "display": "Ignazio Comboni"
        }
      }
    },
    {
      "fullUrl": "urn:uuid:19d5069b-9564-448b-92f8-1fc989827c0a",
      "resource": {
        "resourceType": "Immunization",
        "id": "19d5069b-9564-448b-92f8-1fc989827c0a",
        "meta": {
          "profile": [
            "http://hl7.org/fhir/uv/ips/StructureDefinition/Immunization-uv-ips"
          ]
        },
        "vaccineCode": {
          "coding": [
            {
              "code": "51451000087105",
              "system": "http://snomed.info/sct",
              "display": "Vaccine product containing Streptococcus pneumoniae capsular polysaccharide antigens conjugated"
            },
            {
              "code": "J07AL02",
              "system": "http://www.whocc.no/atc",
              "display": "Pneumococcal conjugate vaccines"
            }
          ],
          "text": "Streptococcus pneumoniae Danish serotype 1"
        },
        "site": {
          "coding": [
            {
              "code": "244979005",
              "system": "http://snomed.info/sct",
              "display": "Entire muscle of upper arm"
            }
          ],
          "text": "Entire muscle of upper arm"
        },
        "route": {
          "coding": [
            {
              "code": "78421000",
              "system": "http://snomed.info/sct",
              "display": "Intramuscular route"
            }
          ],
          "text": "Intramuscular route"
        },
        "text": {
          "status": "generated",
          "div": "<div xmlns=\"http://www.w3.org/1999/xhtml\"><table class=\"hl7__ips\"><tr><td>Streptococcus pneumoniae Danish serotype 1</td><td><span class=\"nb\">02-Apr-2025</span></td></tr></table></div>"
        },
        "status": "completed",
        "patient": {
          "reference": "urn:uuid:1e581e72-c723-4b29-a01e-82a12e7f8edd",
          "display": "Ignazio Comboni"
        },
        "occurrenceDateTime": "2025-04-02",
        "lotNumber": "DZ-62gAYm8",
        "expirationDate": "2025-08-13"
      }
    },
    {
      "fullUrl": "urn:uuid:995fae09-5b68-4ebf-b52a-ef6cdb7fc80b",
      "resource": {
        "resourceType": "Immunization",
        "id": "995fae09-5b68-4ebf-b52a-ef6cdb7fc80b",
        "meta": {
          "profile": [
            "http://hl7.org/fhir/uv/ips/StructureDefinition/Immunization-uv-ips"
          ]
        },
        "vaccineCode": {
          "coding": [
            {
              "code": "1181000221105",
              "system": "http://snomed.info/sct",
              "display": "Vaccine product containing Influenza virus antigen"
            },
            {
              "code": "J07BB02",
              "system": "http://www.whocc.no/atc",
              "display": "Influenza, inactivated, split virus"
            }
          ],
          "text": "Influenza virus antigen only vaccine product"
        },
        "site": {
          "coding": [
            {
              "code": "244979005",
              "system": "http://snomed.info/sct",
              "display": "Entire muscle of upper arm"
            }
          ],
          "text": "Entire muscle of upper arm"
        },
        "route": {
          "coding": [
            {
              "code": "78421000",
              "system": "http://snomed.info/sct",
              "display": "Intramuscular route"
            }
          ],
          "text": "Intramuscular route"
        },
        "text": {
          "status": "generated",
          "div": "<div xmlns=\"http://www.w3.org/1999/xhtml\"><table class=\"hl7__ips\"><tr><td>Influenza virus antigen only vaccine product</td><td><span class=\"nb\">30-Oct-2024</span></td></tr></table></div>"
        },
        "status": "completed",
        "patient": {
          "reference": "urn:uuid:1e581e72-c723-4b29-a01e-82a12e7f8edd",
          "display": "Ignazio Comboni"
        },
        "occurrenceDateTime": "2024-10-30",
        "lotNumber": "RH-3awxZGg",
        "expirationDate": "2025-04-01"
      }
    },
    {
      "fullUrl": "urn:uuid:399379f1-8e1f-46b2-ad72-b374514df250",
      "resource": {
        "resourceType": "Immunization",
        "id": "399379f1-8e1f-46b2-ad72-b374514df250",
        "meta": {
          "profile": [
            "http://hl7.org/fhir/uv/ips/StructureDefinition/Immunization-uv-ips"
          ]
        },
        "vaccineCode": {
          "coding": [
            {
              "code": "1119349007",
              "system": "http://snomed.info/sct",
              "display": "Vaccine product containing SARS-CoV-2 mRNA"
            },
            {
              "code": "J07BX03",
              "system": "http://www.whocc.no/atc",
              "display": "COVID-19 mRNA vaccines"
            }
          ],
          "text": "SARS-CoV-2 mRNA vaccine"
        },
        "site": {
          "coding": [
            {
              "code": "244979005",
              "system": "http://snomed.info/sct",
              "display": "Entire muscle of upper arm"
            }
          ],
          "text": "Entire muscle of upper arm"
        },
        "route": {
          "coding": [
            {
              "code": "78421000",
              "system": "http://snomed.info/sct",
              "display": "Intramuscular route"
            }
          ],
          "text": "Intramuscular route"
        },
        "text": {
          "status": "generated",
          "div": "<div xmlns=\"http://www.w3.org/1999/xhtml\"><table class=\"hl7__ips\"><tr><td>SARS-CoV-2 mRNA vaccine</td><td><span class=\"nb\">14-Apr-2021</span></td></tr></table></div>"
        },
        "status": "completed",
        "patient": {
          "reference": "urn:uuid:1e581e72-c723-4b29-a01e-82a12e7f8edd",
          "display": "Ignazio Comboni"
        },
        "occurrenceDateTime": "2021-04-14",
        "lotNumber": "WA-oqXOH",
        "expirationDate": "2022-02-22"
      }
    },
    {
      "fullUrl": "urn:uuid:8c83a949-8c5e-4938-a6a4-6203f9760dd3",
      "resource": {
        "resourceType": "Immunization",
        "id": "8c83a949-8c5e-4938-a6a4-6203f9760dd3",
        "meta": {
          "profile": [
            "http://hl7.org/fhir/uv/ips/StructureDefinition/Immunization-uv-ips"
          ]
        },
        "vaccineCode": {
          "coding": [
            {
              "code": "777725002",
              "system": "http://snomed.info/sct",
              "display": "Vaccine product containing only Clostridium tetani toxoid antigen adsorbed"
            },
            {
              "code": "J07AM51",
              "system": "http://www.whocc.no/atc",
              "display": "Diphtheria-tetanus vaccines, adult type"
            }
          ],
          "text": "Clostridium tetani toxoid antigen adsorbed only vaccine product"
        },
        "site": {
          "coding": [
            {
              "code": "244979005",
              "system": "http://snomed.info/sct",
              "display": "Entire muscle of upper arm"
            }
          ],
          "text": "Entire muscle of upper arm"
        },
        "route": {
          "coding": [
            {
              "code": "78421000",
              "system": "http://snomed.info/sct",
              "display": "Intramuscular route"
            }
          ],
          "text": "Intramuscular route"
        },
        "text": {
          "status": "generated",
          "div": "<div xmlns=\"http://www.w3.org/1999/xhtml\"><table class=\"hl7__ips\"><tr><td>Clostridium tetani toxoid antigen adsorbed only vaccine product</td><td><span class=\"nb\">10-Mar-2021</span></td></tr></table></div>"
        },
        "status": "completed",
        "patient": {
          "reference": "urn:uuid:1e581e72-c723-4b29-a01e-82a12e7f8edd",
          "display": "Ignazio Comboni"
        },
        "occurrenceDateTime": "2021-03-10",
        "lotNumber": "TU-CEI4",
        "expirationDate": "2021-12-13"
      }
    },
    {
      "fullUrl": "urn:uuid:d0cc6107-052b-45aa-bcf2-30301b6f2752",
      "resource": {
        "resourceType": "Procedure",
        "id": "d0cc6107-052b-45aa-bcf2-30301b6f2752",
        "meta": {
          "profile": [
            "http://hl7.org/fhir/uv/ips/StructureDefinition/Procedure-uv-ips"
          ]
        },
        "code": {
          "coding": [
            {
              "code": "398171003",
              "system": "http://snomed.info/sct",
              "display": "Hearing examination (procedure)"
            }
          ],
          "text": "Hearing examination"
        },
        "text": {
          "status": "generated",
          "div": "<div xmlns=\"http://www.w3.org/1999/xhtml\"><table class=\"hl7__ips\"><tr><td>Hearing examination</td><td><span class=\"nb\">22-Jun-2025</span></td><td>-</td></tr></table></div>"
        },
        "status": "completed",
        "performedDateTime": "2025-06-22",
        "subject": {
          "reference": "urn:uuid:1e581e72-c723-4b29-a01e-82a12e7f8edd",
          "display": "Ignazio Comboni"
        }
      }
    },
    {
      "fullUrl": "urn:uuid:09e0b01e-aaf0-4bf3-a6f6-7c55f5203560",
      "resource": {
        "resourceType": "Procedure",
        "id": "09e0b01e-aaf0-4bf3-a6f6-7c55f5203560",
        "meta": {
          "profile": [
            "http://hl7.org/fhir/uv/ips/StructureDefinition/Procedure-uv-ips"
          ]
        },
        "code": {
          "coding": [
            {
              "code": "703423002",
              "system": "http://snomed.info/sct",
              "display": "Combined chemotherapy and radiation therapy (procedure)"
            }
          ],
          "text": "Combined chemotherapy and radiation therapy"
        },
        "reasonCode": [
          {
            "coding": [
              {
                "code": "424132000",
                "system": "http://snomed.info/sct",
                "display": "Non-small cell carcinoma of lung  TNM stage 1 (disorder)"
              }
            ]
          }
        ],
        "text": {
          "status": "generated",
          "div": "<div xmlns=\"http://www.w3.org/1999/xhtml\"><table class=\"hl7__ips\"><tr><td>Combined chemotherapy and radiation therapy</td><td><span class=\"nb\">22-Jun-2025</span></td><td>Non-small cell carcinoma of lung TNM stage 1 (disorder)</td></tr></table></div>"
        },
        "status": "completed",
        "performedDateTime": "2025-06-22",
        "subject": {
          "reference": "urn:uuid:1e581e72-c723-4b29-a01e-82a12e7f8edd",
          "display": "Ignazio Comboni"
        }
      }
    },
    {
      "fullUrl": "urn:uuid:71d20b45-280b-4ca4-bbff-44aa8ca32326",
      "resource": {
        "resourceType": "Procedure",
        "id": "71d20b45-280b-4ca4-bbff-44aa8ca32326",
        "meta": {
          "profile": [
            "http://hl7.org/fhir/uv/ips/StructureDefinition/Procedure-uv-ips"
          ]
        },
        "code": {
          "coding": [
            {
              "code": "288086009",
              "system": "http://snomed.info/sct",
              "display": "Suture open wound"
            }
          ],
          "text": "Suture open wound"
        },
        "reasonCode": [
          {
            "coding": [
              {
                "code": "284551006",
                "system": "http://snomed.info/sct",
                "display": "Laceration of foot"
              }
            ]
          }
        ],
        "text": {
          "status": "generated",
          "div": "<div xmlns=\"http://www.w3.org/1999/xhtml\"><table class=\"hl7__ips\"><tr><td>Suture open wound</td><td><span class=\"nb\">20-May-2025</span></td><td>Laceration of foot</td></tr></table></div>"
        },
        "status": "completed",
        "performedDateTime": "2025-05-20",
        "subject": {
          "reference": "urn:uuid:1e581e72-c723-4b29-a01e-82a12e7f8edd",
          "display": "Ignazio Comboni"
        }
      }
    },
    {
      "fullUrl": "urn:uuid:b1a7e160-129e-4116-8a6a-49b3f5f15e5a",
      "resource": {
        "resourceType": "Procedure",
        "id": "b1a7e160-129e-4116-8a6a-49b3f5f15e5a",
        "meta": {
          "profile": [
            "http://hl7.org/fhir/uv/ips/StructureDefinition/Procedure-uv-ips"
          ]
        },
        "code": {
          "coding": [
            {
              "code": "16335031000119103",
              "system": "http://snomed.info/sct",
              "display": "High resolution computed tomography of chest without contrast (procedure)"
            }
          ],
          "text": "High resolution computed tomography of chest without contrast"
        },
        "text": {
          "status": "generated",
          "div": "<div xmlns=\"http://www.w3.org/1999/xhtml\"><table class=\"hl7__ips\"><tr><td>High resolution computed tomography of chest without contrast</td><td><span class=\"nb\">11-Apr-2025</span></td><td>-</td></tr></table></div>"
        },
        "status": "completed",
        "performedDateTime": "2025-04-11",
        "subject": {
          "reference": "urn:uuid:1e581e72-c723-4b29-a01e-82a12e7f8edd",
          "display": "Ignazio Comboni"
        }
      }
    },
    {
      "fullUrl": "urn:uuid:8cde763d-0a51-40f8-be95-238b73a78edb",
      "resource": {
        "resourceType": "Procedure",
        "id": "8cde763d-0a51-40f8-be95-238b73a78edb",
        "meta": {
          "profile": [
            "http://hl7.org/fhir/uv/ips/StructureDefinition/Procedure-uv-ips"
          ]
        },
        "code": {
          "coding": [
            {
              "code": "58000006",
              "system": "http://snomed.info/sct",
              "display": "Patient discharge (procedure)"
            }
          ],
          "text": "Patient discharge"
        },
        "text": {
          "status": "generated",
          "div": "<div xmlns=\"http://www.w3.org/1999/xhtml\"><table class=\"hl7__ips\"><tr><td>Patient discharge</td><td><span class=\"nb\">24-Feb-2025</span></td><td>-</td></tr></table></div>"
        },
        "status": "completed",
        "performedDateTime": "2025-02-24",
        "subject": {
          "reference": "urn:uuid:1e581e72-c723-4b29-a01e-82a12e7f8edd",
          "display": "Ignazio Comboni"
        }
      }
    },
    {
      "fullUrl": "urn:uuid:d74b1bac-a6d6-43c9-ba97-d5639bd3f001",
      "resource": {
        "resourceType": "Procedure",
        "id": "d74b1bac-a6d6-43c9-ba97-d5639bd3f001",
        "meta": {
          "profile": [
            "http://hl7.org/fhir/uv/ips/StructureDefinition/Procedure-uv-ips"
          ]
        },
        "code": {
          "coding": [
            {
              "code": "385763009",
              "system": "http://snomed.info/sct",
              "display": "Hospice care (regime/therapy)"
            }
          ],
          "text": "Hospice care"
        },
        "text": {
          "status": "generated",
          "div": "<div xmlns=\"http://www.w3.org/1999/xhtml\"><table class=\"hl7__ips\"><tr><td>Hospice care</td><td><span class=\"nb\">23-Feb-2025</span></td><td>-</td></tr></table></div>"
        },
        "status": "completed",
        "performedDateTime": "2025-02-23",
        "subject": {
          "reference": "urn:uuid:1e581e72-c723-4b29-a01e-82a12e7f8edd",
          "display": "Ignazio Comboni"
        }
      }
    },
    {
      "fullUrl": "urn:uuid:e38b0ae9-55db-477b-9874-c3ac477b3cb6",
      "resource": {
        "resourceType": "Procedure",
        "id": "e38b0ae9-55db-477b-9874-c3ac477b3cb6",
        "meta": {
          "profile": [
            "http://hl7.org/fhir/uv/ips/StructureDefinition/Procedure-uv-ips"
          ]
        },
        "code": {
          "coding": [
            {
              "code": "185087000",
              "system": "http://snomed.info/sct",
              "display": "Notifications (procedure)"
            }
          ],
          "text": "Notifications"
        },
        "text": {
          "status": "generated",
          "div": "<div xmlns=\"http://www.w3.org/1999/xhtml\"><table class=\"hl7__ips\"><tr><td>Notifications</td><td><span class=\"nb\">15-Jan-2025</span></td><td>-</td></tr></table></div>"
        },
        "status": "completed",
        "performedDateTime": "2025-01-15",
        "subject": {
          "reference": "urn:uuid:1e581e72-c723-4b29-a01e-82a12e7f8edd",
          "display": "Ignazio Comboni"
        }
      }
    },
    {
      "fullUrl": "urn:uuid:c3816a44-51b4-446f-ba15-014eea503b92",
      "resource": {
        "resourceType": "Procedure",
        "id": "c3816a44-51b4-446f-ba15-014eea503b92",
        "meta": {
          "profile": [
            "http://hl7.org/fhir/uv/ips/StructureDefinition/Procedure-uv-ips"
          ]
        },
        "code": {
          "coding": [
            {
              "code": "310417005",
              "system": "http://snomed.info/sct",
              "display": "Certification procedure (procedure)"
            }
          ],
          "text": "Certification procedure"
        },
        "text": {
          "status": "generated",
          "div": "<div xmlns=\"http://www.w3.org/1999/xhtml\"><table class=\"hl7__ips\"><tr><td>Certification procedure</td><td><span class=\"nb\">15-Jan-2025</span></td><td>-</td></tr></table></div>"
        },
        "status": "completed",
        "performedDateTime": "2025-01-15",
        "subject": {
          "reference": "urn:uuid:1e581e72-c723-4b29-a01e-82a12e7f8edd",
          "display": "Ignazio Comboni"
        }
      }
    },
    {
      "fullUrl": "urn:uuid:71220a5e-46de-409e-a219-b9a8b731a756",
      "resource": {
        "resourceType": "Procedure",
        "id": "71220a5e-46de-409e-a219-b9a8b731a756",
        "meta": {
          "profile": [
            "http://hl7.org/fhir/uv/ips/StructureDefinition/Procedure-uv-ips"
          ]
        },
        "code": {
          "coding": [
            {
              "code": "315639002",
              "system": "http://snomed.info/sct",
              "display": "Initial patient assessment (procedure)"
            }
          ],
          "text": "Initial patient assessment"
        },
        "text": {
          "status": "generated",
          "div": "<div xmlns=\"http://www.w3.org/1999/xhtml\"><table class=\"hl7__ips\"><tr><td>Initial patient assessment</td><td><span class=\"nb\">15-Jan-2025</span></td><td>-</td></tr></table></div>"
        },
        "status": "completed",
        "performedDateTime": "2025-01-15",
        "subject": {
          "reference": "urn:uuid:1e581e72-c723-4b29-a01e-82a12e7f8edd",
          "display": "Ignazio Comboni"
        }
      }
    },
    {
      "fullUrl": "urn:uuid:aa511539-c961-4182-8290-429189d8ce85",
      "resource": {
        "resourceType": "Procedure",
        "id": "aa511539-c961-4182-8290-429189d8ce85",
        "meta": {
          "profile": [
            "http://hl7.org/fhir/uv/ips/StructureDefinition/Procedure-uv-ips"
          ]
        },
        "code": {
          "coding": [
            {
              "code": "370789001",
              "system": "http://snomed.info/sct",
              "display": "Development of individualized plan of care (procedure)"
            }
          ],
          "text": "Development of individualized plan of care"
        },
        "text": {
          "status": "generated",
          "div": "<div xmlns=\"http://www.w3.org/1999/xhtml\"><table class=\"hl7__ips\"><tr><td>Development of individualized plan of care</td><td><span class=\"nb\">15-Jan-2025</span></td><td>-</td></tr></table></div>"
        },
        "status": "completed",
        "performedDateTime": "2025-01-15",
        "subject": {
          "reference": "urn:uuid:1e581e72-c723-4b29-a01e-82a12e7f8edd",
          "display": "Ignazio Comboni"
        }
      }
    },
    {
      "fullUrl": "urn:uuid:ac944e3b-038a-4db4-a1ee-2b0f33f68574",
      "resource": {
        "resourceType": "Procedure",
        "id": "ac944e3b-038a-4db4-a1ee-2b0f33f68574",
        "meta": {
          "profile": [
            "http://hl7.org/fhir/uv/ips/StructureDefinition/Procedure-uv-ips"
          ]
        },
        "code": {
          "coding": [
            {
              "code": "399208008",
              "system": "http://snomed.info/sct",
              "display": "Plain chest X-ray (procedure)"
            }
          ],
          "text": "Plain X-ray of chest"
        },
        "reasonCode": [
          {
            "coding": [
              {
                "code": "162573006",
                "system": "http://snomed.info/sct",
                "display": "Suspected lung cancer (situation)"
              }
            ]
          }
        ],
        "text": {
          "status": "generated",
          "div": "<div xmlns=\"http://www.w3.org/1999/xhtml\"><table class=\"hl7__ips\"><tr><td>Plain X-ray of chest</td><td><span class=\"nb\">20-Oct-2024</span></td><td>Suspected lung cancer (situation)</td></tr></table></div>"
        },
        "status": "completed",
        "performedDateTime": "2024-10-20",
        "subject": {
          "reference": "urn:uuid:1e581e72-c723-4b29-a01e-82a12e7f8edd",
          "display": "Ignazio Comboni"
        }
      }
    },
    {
      "fullUrl": "urn:uuid:d16c3355-d555-4d95-a7fd-62bdb21efa93",
      "resource": {
        "resourceType": "Procedure",
        "id": "d16c3355-d555-4d95-a7fd-62bdb21efa93",
        "meta": {
          "profile": [
            "http://hl7.org/fhir/uv/ips/StructureDefinition/Procedure-uv-ips"
          ]
        },
        "code": {
          "coding": [
            {
              "code": "710824005",
              "system": "http://snomed.info/sct",
              "display": "Assessment of health and social care needs (procedure)"
            }
          ],
          "text": "Assessment of health and social care needs"
        },
        "text": {
          "status": "generated",
          "div": "<div xmlns=\"http://www.w3.org/1999/xhtml\"><table class=\"hl7__ips\"><tr><td>Assessment of health and social care needs</td><td><span class=\"nb\">24-Jan-2018</span></td><td>-</td></tr></table></div>"
        },
        "status": "completed",
        "performedDateTime": "2018-01-24",
        "subject": {
          "reference": "urn:uuid:1e581e72-c723-4b29-a01e-82a12e7f8edd",
          "display": "Ignazio Comboni"
        }
      }
    },
    {
      "fullUrl": "urn:uuid:34b7d175-f4e7-4f87-9269-8cd092287e91",
      "resource": {
        "resourceType": "Procedure",
        "id": "34b7d175-f4e7-4f87-9269-8cd092287e91",
        "meta": {
          "profile": [
            "http://hl7.org/fhir/uv/ips/StructureDefinition/Procedure-uv-ips"
          ]
        },
        "code": {
          "coding": [
            {
              "code": "710841007",
              "system": "http://snomed.info/sct",
              "display": "Assessment of anxiety (procedure)"
            }
          ],
          "text": "Assessment of anxiety"
        },
        "text": {
          "status": "generated",
          "div": "<div xmlns=\"http://www.w3.org/1999/xhtml\"><table class=\"hl7__ips\"><tr><td>Assessment of anxiety</td><td><span class=\"nb\">24-Jan-2018</span></td><td>-</td></tr></table></div>"
        },
        "status": "completed",
        "performedDateTime": "2018-01-24",
        "subject": {
          "reference": "urn:uuid:1e581e72-c723-4b29-a01e-82a12e7f8edd",
          "display": "Ignazio Comboni"
        }
      }
    },
    {
      "fullUrl": "urn:uuid:7ce9d7a1-3ff4-498d-b7d7-7f41ceb7136b",
      "resource": {
        "resourceType": "Procedure",
        "id": "7ce9d7a1-3ff4-498d-b7d7-7f41ceb7136b",
        "meta": {
          "profile": [
            "http://hl7.org/fhir/uv/ips/StructureDefinition/Procedure-uv-ips"
          ]
        },
        "code": {
          "coding": [
            {
              "code": "763302001",
              "system": "http://snomed.info/sct",
              "display": "Assessment using Alcohol Use Disorders Identification Test - Consumption (procedure)"
            }
          ],
          "text": "Assessment using AUDIT-C (Alcohol Use Disorders Identification Test - Consumption)"
        },
        "text": {
          "status": "generated",
          "div": "<div xmlns=\"http://www.w3.org/1999/xhtml\"><table class=\"hl7__ips\"><tr><td>Assessment using AUDIT-C (Alcohol Use Disorders Identification Test - Consumption)</td><td><span class=\"nb\">24-Jan-2018</span></td><td>-</td></tr></table></div>"
        },
        "status": "completed",
        "performedDateTime": "2018-01-24",
        "subject": {
          "reference": "urn:uuid:1e581e72-c723-4b29-a01e-82a12e7f8edd",
          "display": "Ignazio Comboni"
        }
      }
    },
    {
      "fullUrl": "urn:uuid:2de7d0ee-2c2f-4e80-b022-b52ec6ac966a",
      "resource": {
        "resourceType": "Procedure",
        "id": "2de7d0ee-2c2f-4e80-b022-b52ec6ac966a",
        "meta": {
          "profile": [
            "http://hl7.org/fhir/uv/ips/StructureDefinition/Procedure-uv-ips"
          ]
        },
        "code": {
          "coding": [
            {
              "code": "428211000124100",
              "system": "http://snomed.info/sct",
              "display": "Assessment of substance use (procedure)"
            }
          ],
          "text": "Assessment of substance use"
        },
        "text": {
          "status": "generated",
          "div": "<div xmlns=\"http://www.w3.org/1999/xhtml\"><table class=\"hl7__ips\"><tr><td>Assessment of substance use</td><td><span class=\"nb\">24-Jan-2018</span></td><td>-</td></tr></table></div>"
        },
        "status": "completed",
        "performedDateTime": "2018-01-24",
        "subject": {
          "reference": "urn:uuid:1e581e72-c723-4b29-a01e-82a12e7f8edd",
          "display": "Ignazio Comboni"
        }
      }
    },
    {
      "fullUrl": "urn:uuid:1ace23a5-fc28-467b-8606-41185d1411f6",
      "resource": {
        "resourceType": "AllergyIntolerance",
        "id": "1ace23a5-fc28-467b-8606-41185d1411f6",
        "meta": {
          "profile": [
            "http://hl7.eu/fhir/base/StructureDefinition/allergyIntolerance-eu-core"
          ]
        },
        "code": {
          "coding": [
            {
              "code": "3718001",
              "system": "http://snomed.info/sct",
              "display": "Cow&#039;s milk (substance)"
            }
          ],
          "text": "Cow&#039;s milk"
        },
        "clinicalStatus": {
          "coding": [
            {
              "code": "active",
              "system": "http://terminology.hl7.org/CodeSystem/allergyintolerance-clinical"
            }
          ]
        },
        "category": [
          "food"
        ],
        "reaction": [
          {
            "manifestation": [
              {
                "coding": [
                  {
                    "code": "247472004",
                    "system": "http://snomed.info/sct",
                    "display": "Wheal (finding)"
                  }
                ]
              }
            ],
            "severity": "mild"
          }
        ],
        "text": {
          "status": "generated",
          "div": "<div xmlns=\"http://www.w3.org/1999/xhtml\"><table class=\"hl7__ips\"><tr><th>Allergy/Intolerance</th><th>Onset Date</th><th>Status</th><th>Type</th><th>Reaction</th></tr><tr><td>Cow's milk</td><td><span class=\"nb\">1961-04-22</span></td><td>active</td><td>food</td><td>Wheal (finding)</td></tr></table></div>"
        },
        "onsetDateTime": "1961-04-22",
        "verificationStatus": {
          "coding": [
            {
              "code": "confirmed",
              "system": "http://terminology.hl7.org/CodeSystem/allergyintolerance-verification"
            }
          ]
        },
        "type": "allergy",
        "patient": {
          "reference": "urn:uuid:1e581e72-c723-4b29-a01e-82a12e7f8edd",
          "display": "Ignazio Comboni"
        }
      }
    },
    {
      "fullUrl": "urn:uuid:8dbe89e2-585b-405a-9489-a0b167a24a6e",
      "resource": {
        "resourceType": "AllergyIntolerance",
        "id": "8dbe89e2-585b-405a-9489-a0b167a24a6e",
        "meta": {
          "profile": [
            "http://hl7.eu/fhir/base/StructureDefinition/allergyIntolerance-eu-core"
          ]
        },
        "code": {
          "coding": [
            {
              "code": "84489001",
              "system": "http://snomed.info/sct",
              "display": "Mold (organism)"
            }
          ],
          "text": "Mold"
        },
        "clinicalStatus": {
          "coding": [
            {
              "code": "active",
              "system": "http://terminology.hl7.org/CodeSystem/allergyintolerance-clinical"
            }
          ]
        },
        "category": [
          "environment"
        ],
        "reaction": [
          {
            "manifestation": [
              {
                "coding": [
                  {
                    "code": "21626009",
                    "system": "http://snomed.info/sct",
                    "display": "Allergic skin rash"
                  }
                ]
              }
            ],
            "severity": "mild"
          }
        ],
        "text": {
          "status": "generated",
          "div": "<div xmlns=\"http://www.w3.org/1999/xhtml\"><table class=\"hl7__ips\"><tr><th>Allergy/Intolerance</th><th>Onset Date</th><th>Status</th><th>Type</th><th>Reaction</th></tr><tr><td>Mold</td><td><span class=\"nb\">1961-04-22</span></td><td>active</td><td>environment</td><td>Allergic skin rash</td></tr></table></div>"
        },
        "onsetDateTime": "1961-04-22",
        "verificationStatus": {
          "coding": [
            {
              "code": "confirmed",
              "system": "http://terminology.hl7.org/CodeSystem/allergyintolerance-verification"
            }
          ]
        },
        "type": "allergy",
        "patient": {
          "reference": "urn:uuid:1e581e72-c723-4b29-a01e-82a12e7f8edd",
          "display": "Ignazio Comboni"
        }
      }
    },
    {
      "fullUrl": "urn:uuid:2a37a329-88c9-49ee-9ac5-15342b66c4eb",
      "resource": {
        "resourceType": "AllergyIntolerance",
        "id": "2a37a329-88c9-49ee-9ac5-15342b66c4eb",
        "meta": {
          "profile": [
            "http://hl7.eu/fhir/base/StructureDefinition/allergyIntolerance-eu-core"
          ]
        },
        "code": {
          "coding": [
            {
              "code": "256277009",
              "system": "http://snomed.info/sct",
              "display": "Grass pollen (substance)"
            }
          ],
          "text": "Grass pollen"
        },
        "clinicalStatus": {
          "coding": [
            {
              "code": "active",
              "system": "http://terminology.hl7.org/CodeSystem/allergyintolerance-clinical"
            }
          ]
        },
        "category": [
          "environment"
        ],
        "text": {
          "status": "generated",
          "div": "<div xmlns=\"http://www.w3.org/1999/xhtml\"><table class=\"hl7__ips\"><tr><th>Allergy/Intolerance</th><th>Onset Date</th><th>Status</th><th>Type</th><th>Reaction</th></tr><tr><td>Grass pollen</td><td><span class=\"nb\">1961-04-22</span></td><td>active</td><td>environment</td><td></td></tr></table></div>"
        },
        "onsetDateTime": "1961-04-22",
        "verificationStatus": {
          "coding": [
            {
              "code": "confirmed",
              "system": "http://terminology.hl7.org/CodeSystem/allergyintolerance-verification"
            }
          ]
        },
        "type": "allergy",
        "patient": {
          "reference": "urn:uuid:1e581e72-c723-4b29-a01e-82a12e7f8edd",
          "display": "Ignazio Comboni"
        }
      }
    },
    {
      "fullUrl": "urn:uuid:2f8430d1-5021-476d-8296-890ed324f823",
      "resource": {
        "resourceType": "AllergyIntolerance",
        "id": "2f8430d1-5021-476d-8296-890ed324f823",
        "meta": {
          "profile": [
            "http://hl7.eu/fhir/base/StructureDefinition/allergyIntolerance-eu-core"
          ]
        },
        "code": {
          "coding": [
            {
              "code": "260147004",
              "system": "http://snomed.info/sct",
              "display": "House dust mite (organism)"
            }
          ],
          "text": "House dust mite"
        },
        "clinicalStatus": {
          "coding": [
            {
              "code": "active",
              "system": "http://terminology.hl7.org/CodeSystem/allergyintolerance-clinical"
            }
          ]
        },
        "category": [
          "environment"
        ],
        "text": {
          "status": "generated",
          "div": "<div xmlns=\"http://www.w3.org/1999/xhtml\"><table class=\"hl7__ips\"><tr><th>Allergy/Intolerance</th><th>Onset Date</th><th>Status</th><th>Type</th><th>Reaction</th></tr><tr><td>House dust mite</td><td><span class=\"nb\">1961-04-22</span></td><td>active</td><td>environment</td><td></td></tr></table></div>"
        },
        "onsetDateTime": "1961-04-22",
        "verificationStatus": {
          "coding": [
            {
              "code": "confirmed",
              "system": "http://terminology.hl7.org/CodeSystem/allergyintolerance-verification"
            }
          ]
        },
        "type": "allergy",
        "patient": {
          "reference": "urn:uuid:1e581e72-c723-4b29-a01e-82a12e7f8edd",
          "display": "Ignazio Comboni"
        }
      }
    },
    {
      "fullUrl": "urn:uuid:023445d0-afa9-422d-a5aa-b225e89b37fa",
      "resource": {
        "resourceType": "AllergyIntolerance",
        "id": "023445d0-afa9-422d-a5aa-b225e89b37fa",
        "meta": {
          "profile": [
            "http://hl7.eu/fhir/base/StructureDefinition/allergyIntolerance-eu-core"
          ]
        },
        "code": {
          "coding": [
            {
              "code": "264287008",
              "system": "http://snomed.info/sct",
              "display": "Animal dander (substance)"
            }
          ],
          "text": "Animal dander"
        },
        "clinicalStatus": {
          "coding": [
            {
              "code": "active",
              "system": "http://terminology.hl7.org/CodeSystem/allergyintolerance-clinical"
            }
          ]
        },
        "category": [
          "environment"
        ],
        "reaction": [
          {
            "manifestation": [
              {
                "coding": [
                  {
                    "code": "878820003",
                    "system": "http://snomed.info/sct",
                    "display": "Rhinoconjunctivitis (disorder)"
                  }
                ]
              }
            ],
            "severity": "moderate"
          },
          {
            "manifestation": [
              {
                "coding": [
                  {
                    "code": "49727002",
                    "system": "http://snomed.info/sct",
                    "display": "Cough (finding)"
                  }
                ]
              }
            ],
            "severity": "moderate"
          }
        ],
        "text": {
          "status": "generated",
          "div": "<div xmlns=\"http://www.w3.org/1999/xhtml\"><table class=\"hl7__ips\"><tr><th>Allergy/Intolerance</th><th>Onset Date</th><th>Status</th><th>Type</th><th>Reaction</th></tr><tr><td>Animal dander</td><td><span class=\"nb\">1961-04-22</span></td><td>active</td><td>environment</td><td>Rhinoconjunctivitis (disorder)&lt;br> &lt;/br>Cough (finding)</td></tr></table></div>"
        },
        "onsetDateTime": "1961-04-22",
        "verificationStatus": {
          "coding": [
            {
              "code": "confirmed",
              "system": "http://terminology.hl7.org/CodeSystem/allergyintolerance-verification"
            }
          ]
        },
        "type": "allergy",
        "patient": {
          "reference": "urn:uuid:1e581e72-c723-4b29-a01e-82a12e7f8edd",
          "display": "Ignazio Comboni"
        }
      }
    },
    {
      "fullUrl": "urn:uuid:ff60d224-66c8-4d07-9305-50c2308fa152",
      "resource": {
        "resourceType": "AllergyIntolerance",
        "id": "ff60d224-66c8-4d07-9305-50c2308fa152",
        "meta": {
          "profile": [
            "http://hl7.eu/fhir/base/StructureDefinition/allergyIntolerance-eu-core"
          ]
        },
        "code": {
          "coding": [
            {
              "code": "412071004",
              "system": "http://snomed.info/sct",
              "display": "Wheat (substance)"
            }
          ],
          "text": "Wheat"
        },
        "clinicalStatus": {
          "coding": [
            {
              "code": "active",
              "system": "http://terminology.hl7.org/CodeSystem/allergyintolerance-clinical"
            }
          ]
        },
        "category": [
          "food"
        ],
        "text": {
          "status": "generated",
          "div": "<div xmlns=\"http://www.w3.org/1999/xhtml\"><table class=\"hl7__ips\"><tr><th>Allergy/Intolerance</th><th>Onset Date</th><th>Status</th><th>Type</th><th>Reaction</th></tr><tr><td>Wheat</td><td><span class=\"nb\">1961-04-22</span></td><td>active</td><td>food</td><td></td></tr></table></div>"
        },
        "onsetDateTime": "1961-04-22",
        "verificationStatus": {
          "coding": [
            {
              "code": "confirmed",
              "system": "http://terminology.hl7.org/CodeSystem/allergyintolerance-verification"
            }
          ]
        },
        "type": "allergy",
        "patient": {
          "reference": "urn:uuid:1e581e72-c723-4b29-a01e-82a12e7f8edd",
          "display": "Ignazio Comboni"
        }
      }
    },
    {
      "fullUrl": "urn:uuid:813cb903-4b97-49c7-892b-90b58381de2b",
      "resource": {
        "resourceType": "AllergyIntolerance",
        "id": "813cb903-4b97-49c7-892b-90b58381de2b",
        "meta": {
          "profile": [
            "http://hl7.eu/fhir/base/StructureDefinition/allergyIntolerance-eu-core"
          ]
        },
        "code": {
          "coding": [
            {
              "code": "419199007",
              "system": "http://snomed.info/sct",
              "display": "Allergy to substance (finding)"
            }
          ],
          "text": "Allergy to substance"
        },
        "clinicalStatus": {
          "coding": [
            {
              "code": "active",
              "system": "http://terminology.hl7.org/CodeSystem/allergyintolerance-clinical"
            }
          ]
        },
        "category": [
          "environment"
        ],
        "text": {
          "status": "generated",
          "div": "<div xmlns=\"http://www.w3.org/1999/xhtml\"><table class=\"hl7__ips\"><tr><th>Allergy/Intolerance</th><th>Onset Date</th><th>Status</th><th>Type</th><th>Reaction</th></tr><tr><td>Allergy to substance</td><td><span class=\"nb\">1961-04-22</span></td><td>active</td><td>environment</td><td></td></tr></table></div>"
        },
        "onsetDateTime": "1961-04-22",
        "verificationStatus": {
          "coding": [
            {
              "code": "confirmed",
              "system": "http://terminology.hl7.org/CodeSystem/allergyintolerance-verification"
            }
          ]
        },
        "type": "allergy",
        "patient": {
          "reference": "urn:uuid:1e581e72-c723-4b29-a01e-82a12e7f8edd",
          "display": "Ignazio Comboni"
        }
      }
    },
    {
      "fullUrl": "urn:uuid:e56cd4bd-d50e-4958-9c9c-6ccb8bcd5372",
      "resource": {
        "resourceType": "AllergyIntolerance",
        "id": "e56cd4bd-d50e-4958-9c9c-6ccb8bcd5372",
        "meta": {
          "profile": [
            "http://hl7.eu/fhir/base/StructureDefinition/allergyIntolerance-eu-core"
          ]
        },
        "code": {
          "coding": [
            {
              "code": "735029006",
              "system": "http://snomed.info/sct",
              "display": "Shellfish (substance)"
            }
          ],
          "text": "Shellfish"
        },
        "clinicalStatus": {
          "coding": [
            {
              "code": "active",
              "system": "http://terminology.hl7.org/CodeSystem/allergyintolerance-clinical"
            }
          ]
        },
        "category": [
          "food"
        ],
        "reaction": [
          {
            "manifestation": [
              {
                "coding": [
                  {
                    "code": "39579001",
                    "system": "http://snomed.info/sct",
                    "display": "Anaphylaxis (disorder)"
                  }
                ]
              }
            ],
            "severity": "severe"
          },
          {
            "manifestation": [
              {
                "coding": [
                  {
                    "code": "271807003",
                    "system": "http://snomed.info/sct",
                    "display": "Eruption of skin (disorder)"
                  }
                ]
              }
            ],
            "severity": "moderate"
          }
        ],
        "text": {
          "status": "generated",
          "div": "<div xmlns=\"http://www.w3.org/1999/xhtml\"><table class=\"hl7__ips\"><tr><th>Allergy/Intolerance</th><th>Onset Date</th><th>Status</th><th>Type</th><th>Reaction</th></tr><tr><td>Shellfish</td><td><span class=\"nb\">1961-04-22</span></td><td>active</td><td>food</td><td>Anaphylaxis (disorder)&lt;br> &lt;/br>Eruption of skin (disorder)</td></tr></table></div>"
        },
        "onsetDateTime": "1961-04-22",
        "verificationStatus": {
          "coding": [
            {
              "code": "confirmed",
              "system": "http://terminology.hl7.org/CodeSystem/allergyintolerance-verification"
            }
          ]
        },
        "type": "allergy",
        "patient": {
          "reference": "urn:uuid:1e581e72-c723-4b29-a01e-82a12e7f8edd",
          "display": "Ignazio Comboni"
        }
      }
    },
    {
      "fullUrl": "urn:uuid:f5ae54b5-92a7-429b-bb46-a5dff2ca8970",
      "resource": {
        "resourceType": "AllergyIntolerance",
        "id": "f5ae54b5-92a7-429b-bb46-a5dff2ca8970",
        "meta": {
          "profile": [
            "http://hl7.eu/fhir/base/StructureDefinition/allergyIntolerance-eu-core"
          ]
        },
        "code": {
          "coding": [
            {
              "code": "782576004",
              "system": "http://snomed.info/sct",
              "display": "Tree pollen (substance)"
            }
          ],
          "text": "Tree pollen"
        },
        "clinicalStatus": {
          "coding": [
            {
              "code": "active",
              "system": "http://terminology.hl7.org/CodeSystem/allergyintolerance-clinical"
            }
          ]
        },
        "category": [
          "environment"
        ],
        "text": {
          "status": "generated",
          "div": "<div xmlns=\"http://www.w3.org/1999/xhtml\"><table class=\"hl7__ips\"><tr><th>Allergy/Intolerance</th><th>Onset Date</th><th>Status</th><th>Type</th><th>Reaction</th></tr><tr><td>Tree pollen</td><td><span class=\"nb\">1961-04-22</span></td><td>active</td><td>environment</td><td></td></tr></table></div>"
        },
        "onsetDateTime": "1961-04-22",
        "verificationStatus": {
          "coding": [
            {
              "code": "confirmed",
              "system": "http://terminology.hl7.org/CodeSystem/allergyintolerance-verification"
            }
          ]
        },
        "type": "allergy",
        "patient": {
          "reference": "urn:uuid:1e581e72-c723-4b29-a01e-82a12e7f8edd",
          "display": "Ignazio Comboni"
        }
      }
    },
    {
      "fullUrl": "urn:uuid:519c874f-81e6-4dd1-91da-e3b01bb7b60f",
      "resource": {
        "resourceType": "CarePlan",
        "id": "519c874f-81e6-4dd1-91da-e3b01bb7b60f",
        "category": [
          {
            "coding": [
              {
                "code": "assess-plan",
                "system": "http://terminology.hl7.org/CodeSystem/care-plan-category",
                "display": "Assessment and Plan"
              }
            ]
          }
        ],
        "activity": [
          {
            "detail": {
              "code": {
                "coding": [
                  {
                    "code": "182964004",
                    "system": "http://snomed.info/sct",
                    "display": "Terminal care (regime/therapy)"
                  }
                ]
              },
              "reasonCode": [
                {
                  "coding": [
                    {
                      "code": "424132000",
                      "system": "http://snomed.info/sct",
                      "display": "Non-small cell carcinoma of lung  TNM stage 1 (disorder)"
                    }
                  ]
                }
              ],
              "status": "unknown",
              "description": "Terminal care",
              "kind": "Appointment"
            }
          }
        ],
        "period": {
          "start": "2024-11-16"
        },
        "goal": [
          {
            "reference": "urn:uuid:e70cbd3c-93a2-479e-b73e-040cb7b56c79"
          },
          {
            "reference": "urn:uuid:022dd9fb-957c-4c49-893e-97995611b484"
          },
          {
            "reference": "urn:uuid:ad74abc3-fd0d-46c0-a670-7723fa0125e0"
          },
          {
            "reference": "urn:uuid:c1e92f04-faff-4f89-995b-6be249b735ef"
          },
          {
            "reference": "urn:uuid:202e1ce8-7b57-40c9-a7f8-1f4d12bca8b1"
          }
        ],
        "text": {
          "status": "generated",
          "div": "<div xmlns=\"http://www.w3.org/1999/xhtml\"><table class=\"hl7__ips first25\"><tr><th>Active Planned Care / Goals</th><th>Start Date</th><th>Reason</th></tr><tr><td>Terminal care</td><td><span class=\"nb\">16-Nov-2024</span></td><td>Non-small cell carcinoma of lung TNM stage 1 (disorder)</td></tr><tr><td><ul><li>Ensure optimal comfort and symptom control for the patient during terminal care for non-small cell lung cancer (TNM stage 1).</li><li>Maintain pain at or below patient-defined acceptable level during terminal care.</li><li>Reduce severity of dyspnea to a tolerable level for the patient.</li><li>Minimize anxiety and psychological distress to improve quality of life during terminal care.</li><li>Ensure adequate psychosocial and spiritual support for the patient and family during terminal care.</li></ul></td><td></td><td></td></tr></table></div>"
        },
        "status": "active",
        "intent": "plan",
        "subject": {
          "reference": "urn:uuid:1e581e72-c723-4b29-a01e-82a12e7f8edd",
          "display": "Ignazio Comboni"
        }
      }
    },
    {
      "fullUrl": "urn:uuid:d2e9fefd-c96b-427e-9e85-a45428004ffb",
      "resource": {
        "resourceType": "CarePlan",
        "id": "d2e9fefd-c96b-427e-9e85-a45428004ffb",
        "category": [
          {
            "coding": [
              {
                "code": "assess-plan",
                "system": "http://terminology.hl7.org/CodeSystem/care-plan-category",
                "display": "Assessment and Plan"
              }
            ]
          }
        ],
        "activity": [
          {
            "detail": {
              "code": {
                "coding": [
                  {
                    "code": "736252007",
                    "system": "http://snomed.info/sct",
                    "display": "Cancer care plan (record artifact)"
                  }
                ]
              },
              "reasonCode": [
                {
                  "coding": [
                    {
                      "code": "126906006",
                      "system": "http://snomed.info/sct",
                      "display": "Neoplasm of prostate"
                    }
                  ]
                }
              ],
              "status": "unknown",
              "description": "Cancer care plan",
              "kind": "Appointment"
            }
          }
        ],
        "period": {
          "start": "2023-03-29"
        },
        "goal": [
          {
            "reference": "urn:uuid:da678477-f745-40aa-bce4-7b1434b323fc"
          },
          {
            "reference": "urn:uuid:3504551a-d6e7-4579-ba48-87b7d9873e3f"
          },
          {
            "reference": "urn:uuid:f086e2e5-1283-4d85-b92e-4faa4e354a73"
          },
          {
            "reference": "urn:uuid:5e42553f-0a0b-488d-bc55-ea72b8cd90cb"
          }
        ],
        "text": {
          "status": "generated",
          "div": "<div xmlns=\"http://www.w3.org/1999/xhtml\"><table class=\"hl7__ips first25\"><tr><th>Active Planned Care / Goals</th><th>Start Date</th><th>Reason</th></tr><tr><td>Cancer care plan</td><td><span class=\"nb\">29-Mar-2023</span></td><td>Neoplasm of prostate</td></tr><tr><td><ul><li>Achieve remission or optimal control of prostate neoplasm to prevent further progression and metastasis</li><li>Maintain PSA at or below target threshold to monitor response to prostate cancer therapy</li><li>Minimize pain, urinary symptoms, and other complications related to prostate cancer and its metastases</li><li>Preserve or improve quality of life and functional status during cancer care</li></ul></td><td></td><td></td></tr></table></div>"
        },
        "status": "active",
        "intent": "plan",
        "subject": {
          "reference": "urn:uuid:1e581e72-c723-4b29-a01e-82a12e7f8edd",
          "display": "Ignazio Comboni"
        }
      }
    },
    {
      "fullUrl": "urn:uuid:2d26744f-db15-4f4f-8e25-74799eb1c08b",
      "resource": {
        "resourceType": "CarePlan",
        "id": "2d26744f-db15-4f4f-8e25-74799eb1c08b",
        "category": [
          {
            "coding": [
              {
                "code": "assess-plan",
                "system": "http://terminology.hl7.org/CodeSystem/care-plan-category",
                "display": "Assessment and Plan"
              }
            ]
          }
        ],
        "activity": [
          {
            "detail": {
              "code": {
                "coding": [
                  {
                    "code": "734163000",
                    "system": "http://snomed.info/sct",
                    "display": "Care plan (record artifact)"
                  }
                ]
              },
              "status": "unknown",
              "description": "Care plan",
              "kind": "Appointment"
            }
          }
        ],
        "period": {
          "start": "2004-01-21"
        },
        "text": {
          "status": "generated",
          "div": "<div xmlns=\"http://www.w3.org/1999/xhtml\"><table class=\"hl7__ips first25\"><tr><th>Active Planned Care / Goals</th><th>Start Date</th><th>Reason</th></tr><tr><td>Care plan</td><td><span class=\"nb\">21-Jan-2004</span></td><td>-</td></tr></table></div>"
        },
        "status": "active",
        "intent": "plan",
        "subject": {
          "reference": "urn:uuid:1e581e72-c723-4b29-a01e-82a12e7f8edd",
          "display": "Ignazio Comboni"
        }
      }
    },
    {
      "fullUrl": "urn:uuid:a75c80ae-e79e-4cee-a949-19488d6cc44b",
      "resource": {
        "resourceType": "CarePlan",
        "id": "a75c80ae-e79e-4cee-a949-19488d6cc44b",
        "category": [
          {
            "coding": [
              {
                "code": "assess-plan",
                "system": "http://terminology.hl7.org/CodeSystem/care-plan-category",
                "display": "Assessment and Plan"
              }
            ]
          }
        ],
        "activity": [
          {
            "detail": {
              "code": {
                "coding": [
                  {
                    "code": "408869004",
                    "system": "http://snomed.info/sct",
                    "display": "Musculoskeletal care (regime/therapy)"
                  }
                ]
              },
              "status": "unknown",
              "description": "Musculoskeletal care",
              "kind": "Appointment"
            }
          }
        ],
        "period": {
          "start": "1986-05-31"
        },
        "text": {
          "status": "generated",
          "div": "<div xmlns=\"http://www.w3.org/1999/xhtml\"><table class=\"hl7__ips first25\"><tr><th>Active Planned Care / Goals</th><th>Start Date</th><th>Reason</th></tr><tr><td>Musculoskeletal care</td><td><span class=\"nb\">31-May-1986</span></td><td>-</td></tr></table></div>"
        },
        "status": "active",
        "intent": "plan",
        "subject": {
          "reference": "urn:uuid:1e581e72-c723-4b29-a01e-82a12e7f8edd",
          "display": "Ignazio Comboni"
        }
      }
    },
    {
      "fullUrl": "urn:uuid:11efb5d9-39e3-4669-98f0-9d52b00c2014",
      "resource": {
        "resourceType": "CarePlan",
        "id": "11efb5d9-39e3-4669-98f0-9d52b00c2014",
        "category": [
          {
            "coding": [
              {
                "code": "assess-plan",
                "system": "http://terminology.hl7.org/CodeSystem/care-plan-category",
                "display": "Assessment and Plan"
              }
            ]
          }
        ],
        "activity": [
          {
            "detail": {
              "code": {
                "coding": [
                  {
                    "code": "736254008",
                    "system": "http://snomed.info/sct",
                    "display": "Psychiatry care plan (record artifact)"
                  }
                ]
              },
              "reasonCode": [
                {
                  "coding": [
                    {
                      "code": "370143000",
                      "system": "http://snomed.info/sct",
                      "display": "Major depression disorder"
                    }
                  ]
                }
              ],
              "status": "unknown",
              "description": "Psychiatry care plan",
              "kind": "Appointment"
            }
          }
        ],
        "period": {
          "start": "1979-03-14"
        },
        "goal": [
          {
            "reference": "urn:uuid:9ee4ecbf-f14f-45e0-b07f-0e26a20def4a"
          },
          {
            "reference": "urn:uuid:8322cb62-e224-413d-a2a4-a89dfe5198fc"
          },
          {
            "reference": "urn:uuid:78826f41-7b9b-47fd-91f2-208a1eae7a6f"
          },
          {
            "reference": "urn:uuid:4b70d937-6e11-47e9-a408-31850fa7f4cb"
          }
        ],
        "text": {
          "status": "generated",
          "div": "<div xmlns=\"http://www.w3.org/1999/xhtml\"><table class=\"hl7__ips first25\"><tr><th>Active Planned Care / Goals</th><th>Start Date</th><th>Reason</th></tr><tr><td>Psychiatry care plan</td><td><span class=\"nb\">14-Mar-1979</span></td><td>Major depression disorder</td></tr><tr><td><ul><li>Patient will achieve remission of depressive symptoms as measured by PHQ-9 score.</li><li>Patient will report improved ability to perform activities of daily living and social engagement.</li><li>Patient will report no suicidal ideation or intent.</li><li>Patient will attend scheduled psychiatric appointments and adhere to prescribed medications.</li></ul></td><td></td><td></td></tr></table></div>"
        },
        "status": "active",
        "intent": "plan",
        "subject": {
          "reference": "urn:uuid:1e581e72-c723-4b29-a01e-82a12e7f8edd",
          "display": "Ignazio Comboni"
        }
      }
    },
    {
      "fullUrl": "urn:uuid:57c804f8-458d-43c7-b18c-7edd0d1e3c1b",
      "resource": {
        "resourceType": "CarePlan",
        "id": "57c804f8-458d-43c7-b18c-7edd0d1e3c1b",
        "category": [
          {
            "coding": [
              {
                "code": "assess-plan",
                "system": "http://terminology.hl7.org/CodeSystem/care-plan-category",
                "display": "Assessment and Plan"
              }
            ]
          }
        ],
        "activity": [
          {
            "detail": {
              "code": {
                "coding": [
                  {
                    "code": "718347000",
                    "system": "http://snomed.info/sct",
                    "display": "Mental health care plan (record artifact)"
                  }
                ]
              },
              "reasonCode": [
                {
                  "coding": [
                    {
                      "code": "36923009",
                      "system": "http://snomed.info/sct",
                      "display": "Major depression  single episode"
                    }
                  ]
                }
              ],
              "status": "unknown",
              "description": "Mental health care plan",
              "kind": "Appointment"
            }
          }
        ],
        "period": {
          "start": "1979-02-21"
        },
        "goal": [
          {
            "reference": "urn:uuid:dde2e870-e393-47a5-bcda-6d0c659cc365"
          },
          {
            "reference": "urn:uuid:faac04f6-8bb9-447a-bda2-13934df55b49"
          },
          {
            "reference": "urn:uuid:df45ee22-30be-43c6-914c-6fa9b4b7c402"
          }
        ],
        "text": {
          "status": "generated",
          "div": "<div xmlns=\"http://www.w3.org/1999/xhtml\"><table class=\"hl7__ips first25\"><tr><th>Active Planned Care / Goals</th><th>Start Date</th><th>Reason</th></tr><tr><td>Mental health care plan</td><td><span class=\"nb\">21-Feb-1979</span></td><td>Major depression single episode</td></tr><tr><td><ul><li>Patient will achieve remission of major depressive symptoms as measured by PHQ-9 score.</li><li>Patient will report improved ability to perform activities of daily living.</li><li>Patient will report no suicidal ideation.</li></ul></td><td></td><td></td></tr></table></div>"
        },
        "status": "active",
        "intent": "plan",
        "subject": {
          "reference": "urn:uuid:1e581e72-c723-4b29-a01e-82a12e7f8edd",
          "display": "Ignazio Comboni"
        }
      }
    },
    {
      "fullUrl": "urn:uuid:e39445cb-2233-4a26-95a5-a57ebdf7be14",
      "resource": {
        "resourceType": "CarePlan",
        "id": "e39445cb-2233-4a26-95a5-a57ebdf7be14",
        "category": [
          {
            "coding": [
              {
                "code": "assess-plan",
                "system": "http://terminology.hl7.org/CodeSystem/care-plan-category",
                "display": "Assessment and Plan"
              }
            ]
          }
        ],
        "activity": [
          {
            "detail": {
              "code": {
                "coding": [
                  {
                    "code": "737434004",
                    "system": "http://snomed.info/sct",
                    "display": "Major depressive disorder clinical management plan (record artifact)"
                  }
                ]
              },
              "reasonCode": [
                {
                  "coding": [
                    {
                      "code": "370143000",
                      "system": "http://snomed.info/sct",
                      "display": "Major depression disorder"
                    }
                  ]
                }
              ],
              "status": "unknown",
              "description": "Major depressive disorder clinical management plan",
              "kind": "Appointment"
            }
          }
        ],
        "period": {
          "start": "1979-02-21"
        },
        "goal": [
          {
            "reference": "urn:uuid:8e4eaa8c-9621-4828-ad7b-55167e48afab"
          },
          {
            "reference": "urn:uuid:d1fb79c1-7503-4bc3-a44a-99415b40f206"
          },
          {
            "reference": "urn:uuid:a446a40c-2301-4671-9b3f-500595b64200"
          }
        ],
        "text": {
          "status": "generated",
          "div": "<div xmlns=\"http://www.w3.org/1999/xhtml\"><table class=\"hl7__ips first25\"><tr><th>Active Planned Care / Goals</th><th>Start Date</th><th>Reason</th></tr><tr><td>Major depressive disorder clinical management plan</td><td><span class=\"nb\">21-Feb-1979</span></td><td>Major depression disorder</td></tr><tr><td><ul><li>Patient will achieve remission of depressive symptoms as measured by standardized depression scale.</li><li>Patient will report improved ability to perform activities of daily living and increased quality of life.</li><li>Patient will not experience suicidal ideation or engage in self-harm behaviors.</li></ul></td><td></td><td></td></tr></table></div>"
        },
        "status": "active",
        "intent": "plan",
        "subject": {
          "reference": "urn:uuid:1e581e72-c723-4b29-a01e-82a12e7f8edd",
          "display": "Ignazio Comboni"
        }
      }
    },
    {
      "fullUrl": "urn:uuid:f08efa96-863b-4e70-9843-4aee201ce16e",
      "resource": {
        "resourceType": "CarePlan",
        "id": "f08efa96-863b-4e70-9843-4aee201ce16e",
        "category": [
          {
            "coding": [
              {
                "code": "assess-plan",
                "system": "http://terminology.hl7.org/CodeSystem/care-plan-category",
                "display": "Assessment and Plan"
              }
            ]
          }
        ],
        "activity": [
          {
            "detail": {
              "code": {
                "coding": [
                  {
                    "code": "384758001",
                    "system": "http://snomed.info/sct",
                    "display": "Self-care interventions (procedure)"
                  }
                ]
              },
              "status": "unknown",
              "description": "Self-care interventions",
              "kind": "Appointment"
            }
          }
        ],
        "period": {
          "start": "1961-04-11"
        },
        "text": {
          "status": "generated",
          "div": "<div xmlns=\"http://www.w3.org/1999/xhtml\"><table class=\"hl7__ips first25\"><tr><th>Active Planned Care / Goals</th><th>Start Date</th><th>Reason</th></tr><tr><td>Self-care interventions</td><td><span class=\"nb\">11-Apr-1961</span></td><td>-</td></tr></table></div>"
        },
        "status": "active",
        "intent": "plan",
        "subject": {
          "reference": "urn:uuid:1e581e72-c723-4b29-a01e-82a12e7f8edd",
          "display": "Ignazio Comboni"
        }
      }
    },
    {
      "fullUrl": "urn:uuid:7395c6c4-1e82-40f5-96db-cf5a49430142",
      "resource": {
        "resourceType": "ImmunizationRecommendation",
        "id": "7395c6c4-1e82-40f5-96db-cf5a49430142",
        "recommendation": [
          {
            "vaccineCode": [
              {
                "coding": [
                  {
                    "code": "1181000221105",
                    "system": "http://snomed.info/sct",
                    "display": "Vaccine product containing only Influenza virus antigen (medicinal product)"
                  }
                ]
              }
            ],
            "dateCriterion": [
              {
                "code": {
                  "coding": [
                    {
                      "code": "30980-7",
                      "system": "http://loinc.org",
                      "display": "Date vaccine due"
                    }
                  ]
                },
                "value": "2025-10-01"
              }
            ],
            "targetDisease": {
              "coding": [
                {
                  "code": "6142004",
                  "system": "http://snomed.info/sct",
                  "display": "Influenza (disorder)"
                }
              ]
            },
            "series": "Annual seasonal influenza vaccination",
            "forecastStatus": {
              "coding": [
                {
                  "code": "due",
                  "system": "http://terminology.hl7.org/CodeSystem/immunization-recommendation-status",
                  "display": "Due"
                }
              ]
            }
          }
        ],
        "text": {
          "status": "generated",
          "div": "<div xmlns=\"http://www.w3.org/1999/xhtml\"><table class=\"hl7__ips\"><tr><td>Vaccine product containing only Influenza virus antigen (medicinal product)</td><td><span class=\"nb\">01-Oct-2025</span></td><td>Annual seasonal influenza vaccination</td></tr></table></div>"
        },
        "date": "2025-12-11",
        "patient": {
          "reference": "urn:uuid:1e581e72-c723-4b29-a01e-82a12e7f8edd",
          "display": "Ignazio Comboni"
        }
      }
    },
    {
      "fullUrl": "urn:uuid:8510fbe7-994d-4cfa-835b-726d60b725a6",
      "resource": {
        "resourceType": "Observation",
        "id": "8510fbe7-994d-4cfa-835b-726d60b725a6",
        "meta": {
          "profile": [
            "http://hl7.org/fhir/StructureDefinition/vitalsigns"
          ]
        },
        "category": [
          {
            "coding": [
              {
                "system": "http://terminology.hl7.org/CodeSystem/observation-category",
                "code": "vital-signs",
                "display": "Vital Signs"
              }
            ]
          }
        ],
        "valueQuantity": {
          "value": 7,
          "code": "{score}",
          "unit": "{score}"
        },
        "text": {
          "status": "generated",
          "div": "<div xmlns=\"http://www.w3.org/1999/xhtml\"><table class=\"hl7__ips\"><tr><th>Vital Sign</th><th>Date</th><th>Measurement</th></tr><tr><td>Pain severity - 0-10 verbal numeric rating [Score] - Reported</td><td>22-Jun-2025</td><td>7 {score}</td></tr></table></div>"
        },
        "status": "final",
        "code": {
          "coding": [
            {
              "code": "72514-3",
              "system": "http://loinc.org",
              "display": "Pain severity - 0-10 verbal numeric rating [Score] - Reported"
            }
          ]
        },
        "subject": {
          "reference": "urn:uuid:1e581e72-c723-4b29-a01e-82a12e7f8edd",
          "display": "Ignazio Comboni"
        },
        "effectiveDateTime": "2025-06-22"
      }
    },
    {
      "fullUrl": "urn:uuid:19a063d8-4991-41ec-9d17-2d7b8f1944d3",
      "resource": {
        "resourceType": "Observation",
        "id": "19a063d8-4991-41ec-9d17-2d7b8f1944d3",
        "meta": {
          "profile": [
            "http://hl7.org/fhir/StructureDefinition/vitalsigns"
          ]
        },
        "category": [
          {
            "coding": [
              {
                "system": "http://terminology.hl7.org/CodeSystem/observation-category",
                "code": "vital-signs",
                "display": "Vital Signs"
              }
            ]
          }
        ],
        "valueQuantity": {
          "value": 7,
          "code": "{score}",
          "unit": "{score}"
        },
        "text": {
          "status": "generated",
          "div": "<div xmlns=\"http://www.w3.org/1999/xhtml\"><table class=\"hl7__ips\"><tr><th>Vital Sign</th><th>Date</th><th>Measurement</th></tr><tr><td>Pain severity - 0-10 verbal numeric rating [Score] - Reported</td><td>21-Jun-2025</td><td>7 {score}</td></tr></table></div>"
        },
        "status": "final",
        "code": {
          "coding": [
            {
              "code": "72514-3",
              "system": "http://loinc.org",
              "display": "Pain severity - 0-10 verbal numeric rating [Score] - Reported"
            }
          ]
        },
        "subject": {
          "reference": "urn:uuid:1e581e72-c723-4b29-a01e-82a12e7f8edd",
          "display": "Ignazio Comboni"
        },
        "effectiveDateTime": "2025-06-21"
      }
    },
    {
      "fullUrl": "urn:uuid:d10831e4-b018-4cef-838a-8c0348e02736",
      "resource": {
        "resourceType": "Observation",
        "id": "d10831e4-b018-4cef-838a-8c0348e02736",
        "meta": {
          "profile": [
            "http://hl7.eu/fhir/laboratory/StructureDefinition/Observation-resultslab-eu-lab"
          ]
        },
        "performer": [
          {
            "display": "The Central European Lab"
          }
        ],
        "category": [
          {
            "coding": [
              {
                "system": "http://terminology.hl7.org/CodeSystem/observation-category",
                "code": "laboratory"
              }
            ]
          }
        ],
        "code": {
          "coding": [
            {
              "code": "2339-0",
              "system": "http://loinc.org",
              "display": "Glucose [Mass/volume] in Blood"
            }
          ],
          "text": "Glucose [Mass/volume] in Blood"
        },
        "valueQuantity": {
          "system": "http://unitsofmeasure.org",
          "value": 87.7,
          "unit": "mg/dL",
          "code": "mg/dL"
        },
        "referenceRange": [
          {
            "low": {
              "value": 70,
              "code": "mg/dL",
              "system": "http://unitsofmeasure.org"
            }
          },
          {
            "high": {
              "value": 99,
              "code": "mg/dL",
              "system": "http://unitsofmeasure.org"
            }
          }
        ],
        "text": {
          "status": "generated",
          "div": "<div xmlns=\"http://www.w3.org/1999/xhtml\"><table class=\"hl7__eu__lab__report\"><tr><th>Test</th><th>18-Jun-2025</th><th>Reference&#xA0;Range</th><th>Unit</th></tr><tr><td>Glucose [Mass/volume] in Blood</td><td>87.7</td><td>70 - 99</td><td></td><td>mg/dL</td></tr></table></div>"
        },
        "status": "final",
        "subject": {
          "reference": "urn:uuid:1e581e72-c723-4b29-a01e-82a12e7f8edd",
          "display": "Ignazio Comboni"
        },
        "effectiveDateTime": "2025-06-17T22:00:01Z"
      }
    },
    {
      "fullUrl": "urn:uuid:6b4ba6d3-7dcf-4468-93c4-59c802c61591",
      "resource": {
        "resourceType": "Observation",
        "id": "6b4ba6d3-7dcf-4468-93c4-59c802c61591",
        "meta": {
          "profile": [
            "http://hl7.eu/fhir/laboratory/StructureDefinition/Observation-resultslab-eu-lab"
          ]
        },
        "performer": [
          {
            "display": "The Central European Lab"
          }
        ],
        "category": [
          {
            "coding": [
              {
                "system": "http://terminology.hl7.org/CodeSystem/observation-category",
                "code": "laboratory"
              }
            ]
          }
        ],
        "code": {
          "coding": [
            {
              "code": "6299-2",
              "system": "http://loinc.org",
              "display": "Urea nitrogen [Mass/volume] in Blood"
            }
          ],
          "text": "Urea nitrogen [Mass/volume] in Blood"
        },
        "valueQuantity": {
          "system": "http://unitsofmeasure.org",
          "value": 8.8,
          "unit": "mg/dL",
          "code": "mg/dL"
        },
        "referenceRange": [
          {
            "low": {
              "value": 7,
              "code": "mg/dL",
              "system": "http://unitsofmeasure.org"
            }
          },
          {
            "high": {
              "value": 20,
              "code": "mg/dL",
              "system": "http://unitsofmeasure.org"
            }
          }
        ],
        "text": {
          "status": "generated",
          "div": "<div xmlns=\"http://www.w3.org/1999/xhtml\"><table class=\"hl7__eu__lab__report\"><tr><th>Test</th><th>18-Jun-2025</th><th>Reference&#xA0;Range</th><th>Unit</th></tr><tr><td>Urea nitrogen [Mass/volume] in Blood</td><td>8.8</td><td>7 - 20</td><td></td><td>mg/dL</td></tr></table></div>"
        },
        "status": "final",
        "subject": {
          "reference": "urn:uuid:1e581e72-c723-4b29-a01e-82a12e7f8edd",
          "display": "Ignazio Comboni"
        },
        "effectiveDateTime": "2025-06-17T22:00:01Z"
      }
    },
    {
      "fullUrl": "urn:uuid:3d5c712a-752e-4c4b-b956-25f50bc9a39f",
      "resource": {
        "resourceType": "Observation",
        "id": "3d5c712a-752e-4c4b-b956-25f50bc9a39f",
        "meta": {
          "profile": [
            "http://hl7.eu/fhir/laboratory/StructureDefinition/Observation-resultslab-eu-lab"
          ]
        },
        "performer": [
          {
            "display": "The Central European Lab"
          }
        ],
        "category": [
          {
            "coding": [
              {
                "system": "http://terminology.hl7.org/CodeSystem/observation-category",
                "code": "laboratory"
              }
            ]
          }
        ],
        "code": {
          "coding": [
            {
              "code": "38483-4",
              "system": "http://loinc.org",
              "display": "Creatinine [Mass/volume] in Blood"
            }
          ],
          "text": "Creatinine [Mass/volume] in Blood"
        },
        "valueQuantity": {
          "system": "http://unitsofmeasure.org",
          "value": 2.9,
          "unit": "mg/dL",
          "code": "mg/dL"
        },
        "referenceRange": [
          {
            "low": {
              "value": 0.9,
              "code": "mg/dL",
              "system": "http://unitsofmeasure.org"
            }
          },
          {
            "high": {
              "value": 1.3,
              "code": "mg/dL",
              "system": "http://unitsofmeasure.org"
            }
          }
        ],
        "interpretation": [
          {
            "coding": [
              {
                "code": "H",
                "system": "http://terminology.hl7.org/CodeSystem/v3-ObservationInterpretation",
                "display": "High"
              }
            ]
          }
        ],
        "text": {
          "status": "generated",
          "div": "<div xmlns=\"http://www.w3.org/1999/xhtml\"><table class=\"hl7__eu__lab__report\"><tr><th>Test</th><th>18-Jun-2025</th><th>Reference&#xA0;Range</th><th>Unit</th></tr><tr><td>Creatinine [Mass/volume] in Blood</td><td>2.9</td><td>0.9 - 1.3</td><td>H</td><td>mg/dL</td></tr></table></div>"
        },
        "status": "final",
        "subject": {
          "reference": "urn:uuid:1e581e72-c723-4b29-a01e-82a12e7f8edd",
          "display": "Ignazio Comboni"
        },
        "effectiveDateTime": "2025-06-17T22:00:01Z"
      }
    },
    {
      "fullUrl": "urn:uuid:c32e450b-3afd-434b-8343-4cd63c3ee5b8",
      "resource": {
        "resourceType": "Observation",
        "id": "c32e450b-3afd-434b-8343-4cd63c3ee5b8",
        "meta": {
          "profile": [
            "http://hl7.eu/fhir/laboratory/StructureDefinition/Observation-resultslab-eu-lab"
          ]
        },
        "performer": [
          {
            "display": "The Central European Lab"
          }
        ],
        "category": [
          {
            "coding": [
              {
                "system": "http://terminology.hl7.org/CodeSystem/observation-category",
                "code": "laboratory"
              }
            ]
          }
        ],
        "code": {
          "coding": [
            {
              "code": "49765-1",
              "system": "http://loinc.org",
              "display": "Calcium [Mass/volume] in Blood"
            }
          ],
          "text": "Calcium [Mass/volume] in Blood"
        },
        "valueQuantity": {
          "system": "http://unitsofmeasure.org",
          "value": 10,
          "unit": "mg/dL",
          "code": "mg/dL"
        },
        "referenceRange": [
          {
            "low": {
              "value": 8.5,
              "code": "mg/dL",
              "system": "http://unitsofmeasure.org"
            }
          },
          {
            "high": {
              "value": 10.5,
              "code": "mg/dL",
              "system": "http://unitsofmeasure.org"
            }
          }
        ],
        "text": {
          "status": "generated",
          "div": "<div xmlns=\"http://www.w3.org/1999/xhtml\"><table class=\"hl7__eu__lab__report\"><tr><th>Test</th><th>18-Jun-2025</th><th>Reference&#xA0;Range</th><th>Unit</th></tr><tr><td>Calcium [Mass/volume] in Blood</td><td>10.0</td><td>8.5 - 10.5</td><td></td><td>mg/dL</td></tr></table></div>"
        },
        "status": "final",
        "subject": {
          "reference": "urn:uuid:1e581e72-c723-4b29-a01e-82a12e7f8edd",
          "display": "Ignazio Comboni"
        },
        "effectiveDateTime": "2025-06-17T22:00:01Z"
      }
    },
    {
      "fullUrl": "urn:uuid:16ec5399-525f-41ce-a3e8-63238acdfd6d",
      "resource": {
        "resourceType": "Observation",
        "id": "16ec5399-525f-41ce-a3e8-63238acdfd6d",
        "meta": {
          "profile": [
            "http://hl7.eu/fhir/laboratory/StructureDefinition/Observation-resultslab-eu-lab"
          ]
        },
        "performer": [
          {
            "display": "The Central European Lab"
          }
        ],
        "category": [
          {
            "coding": [
              {
                "system": "http://terminology.hl7.org/CodeSystem/observation-category",
                "code": "laboratory"
              }
            ]
          }
        ],
        "code": {
          "coding": [
            {
              "code": "2947-0",
              "system": "http://loinc.org",
              "display": "Sodium [Moles/volume] in Blood"
            }
          ],
          "text": "Sodium [Moles/volume] in Blood"
        },
        "valueQuantity": {
          "system": "http://unitsofmeasure.org",
          "value": 139.6,
          "unit": "mmol/L",
          "code": "mmol/L"
        },
        "referenceRange": [
          {
            "low": {
              "value": 135,
              "code": "mmol/L",
              "system": "http://unitsofmeasure.org"
            }
          },
          {
            "high": {
              "value": 145,
              "code": "mmol/L",
              "system": "http://unitsofmeasure.org"
            }
          }
        ],
        "text": {
          "status": "generated",
          "div": "<div xmlns=\"http://www.w3.org/1999/xhtml\"><table class=\"hl7__eu__lab__report\"><tr><th>Test</th><th>18-Jun-2025</th><th>Reference&#xA0;Range</th><th>Unit</th></tr><tr><td>Sodium [Moles/volume] in Blood</td><td>139.6</td><td>135 - 145</td><td></td><td>mmol/L</td></tr></table></div>"
        },
        "status": "final",
        "subject": {
          "reference": "urn:uuid:1e581e72-c723-4b29-a01e-82a12e7f8edd",
          "display": "Ignazio Comboni"
        },
        "effectiveDateTime": "2025-06-17T22:00:01Z"
      }
    },
    {
      "fullUrl": "urn:uuid:80da538b-fbd2-495d-842d-277e4dbf224f",
      "resource": {
        "resourceType": "Observation",
        "id": "80da538b-fbd2-495d-842d-277e4dbf224f",
        "meta": {
          "profile": [
            "http://hl7.eu/fhir/laboratory/StructureDefinition/Observation-resultslab-eu-lab"
          ]
        },
        "performer": [
          {
            "display": "The Central European Lab"
          }
        ],
        "category": [
          {
            "coding": [
              {
                "system": "http://terminology.hl7.org/CodeSystem/observation-category",
                "code": "laboratory"
              }
            ]
          }
        ],
        "code": {
          "coding": [
            {
              "code": "6298-4",
              "system": "http://loinc.org",
              "display": "Potassium [Moles/volume] in Blood"
            }
          ],
          "text": "Potassium [Moles/volume] in Blood"
        },
        "valueQuantity": {
          "system": "http://unitsofmeasure.org",
          "value": 4.6,
          "unit": "mmol/L",
          "code": "mmol/L"
        },
        "referenceRange": [
          {
            "low": {
              "value": 3.5,
              "code": "mmol/L",
              "system": "http://unitsofmeasure.org"
            }
          },
          {
            "high": {
              "value": 5.3,
              "code": "mmol/L",
              "system": "http://unitsofmeasure.org"
            }
          }
        ],
        "text": {
          "status": "generated",
          "div": "<div xmlns=\"http://www.w3.org/1999/xhtml\"><table class=\"hl7__eu__lab__report\"><tr><th>Test</th><th>18-Jun-2025</th><th>Reference&#xA0;Range</th><th>Unit</th></tr><tr><td>Potassium [Moles/volume] in Blood</td><td>4.6</td><td>3.5 - 5.3</td><td></td><td>mmol/L</td></tr></table></div>"
        },
        "status": "final",
        "subject": {
          "reference": "urn:uuid:1e581e72-c723-4b29-a01e-82a12e7f8edd",
          "display": "Ignazio Comboni"
        },
        "effectiveDateTime": "2025-06-17T22:00:01Z"
      }
    },
    {
      "fullUrl": "urn:uuid:dcfbaee3-9a8f-46a1-970a-3e168c1dd013",
      "resource": {
        "resourceType": "Observation",
        "id": "dcfbaee3-9a8f-46a1-970a-3e168c1dd013",
        "meta": {
          "profile": [
            "http://hl7.eu/fhir/laboratory/StructureDefinition/Observation-resultslab-eu-lab"
          ]
        },
        "performer": [
          {
            "display": "The Central European Lab"
          }
        ],
        "category": [
          {
            "coding": [
              {
                "system": "http://terminology.hl7.org/CodeSystem/observation-category",
                "code": "laboratory"
              }
            ]
          }
        ],
        "code": {
          "coding": [
            {
              "code": "2069-3",
              "system": "http://loinc.org",
              "display": "Chloride [Moles/volume] in Blood"
            }
          ],
          "text": "Chloride [Moles/volume] in Blood"
        },
        "valueQuantity": {
          "system": "http://unitsofmeasure.org",
          "value": 110.3,
          "unit": "mmol/L",
          "code": "mmol/L"
        },
        "referenceRange": [
          {
            "low": {
              "value": 98,
              "code": "mmol/L",
              "system": "http://unitsofmeasure.org"
            }
          },
          {
            "high": {
              "value": 107,
              "code": "mmol/L",
              "system": "http://unitsofmeasure.org"
            }
          }
        ],
        "interpretation": [
          {
            "coding": [
              {
                "code": "H",
                "system": "http://terminology.hl7.org/CodeSystem/v3-ObservationInterpretation",
                "display": "High"
              }
            ]
          }
        ],
        "text": {
          "status": "generated",
          "div": "<div xmlns=\"http://www.w3.org/1999/xhtml\"><table class=\"hl7__eu__lab__report\"><tr><th>Test</th><th>18-Jun-2025</th><th>Reference&#xA0;Range</th><th>Unit</th></tr><tr><td>Chloride [Moles/volume] in Blood</td><td>110.3</td><td>98 - 107</td><td>H</td><td>mmol/L</td></tr></table></div>"
        },
        "status": "final",
        "subject": {
          "reference": "urn:uuid:1e581e72-c723-4b29-a01e-82a12e7f8edd",
          "display": "Ignazio Comboni"
        },
        "effectiveDateTime": "2025-06-17T22:00:01Z"
      }
    },
    {
      "fullUrl": "urn:uuid:5be1edb4-b247-4a75-851c-bb291f23c41e",
      "resource": {
        "resourceType": "Observation",
        "id": "5be1edb4-b247-4a75-851c-bb291f23c41e",
        "meta": {
          "profile": [
            "http://hl7.eu/fhir/laboratory/StructureDefinition/Observation-resultslab-eu-lab"
          ]
        },
        "performer": [
          {
            "display": "The Central European Lab"
          }
        ],
        "category": [
          {
            "coding": [
              {
                "system": "http://terminology.hl7.org/CodeSystem/observation-category",
                "code": "laboratory"
              }
            ]
          }
        ],
        "code": {
          "coding": [
            {
              "code": "20565-8",
              "system": "http://loinc.org",
              "display": "Carbon dioxide, total [Moles/volume] in Blood"
            }
          ],
          "text": "Carbon dioxide, total [Moles/volume] in Blood"
        },
        "valueQuantity": {
          "system": "http://unitsofmeasure.org",
          "value": 27.9,
          "unit": "mmol/L",
          "code": "mmol/L"
        },
        "referenceRange": [
          {
            "low": {
              "value": 24,
              "code": "mmol/L",
              "system": "http://unitsofmeasure.org"
            }
          },
          {
            "high": {
              "value": 29,
              "code": "mmol/L",
              "system": "http://unitsofmeasure.org"
            }
          }
        ],
        "text": {
          "status": "generated",
          "div": "<div xmlns=\"http://www.w3.org/1999/xhtml\"><table class=\"hl7__eu__lab__report\"><tr><th>Test</th><th>18-Jun-2025</th><th>Reference&#xA0;Range</th><th>Unit</th></tr><tr><td>Carbon dioxide, total [Moles/volume] in Blood</td><td>27.9</td><td>24 - 29</td><td></td><td>mmol/L</td></tr></table></div>"
        },
        "status": "final",
        "subject": {
          "reference": "urn:uuid:1e581e72-c723-4b29-a01e-82a12e7f8edd",
          "display": "Ignazio Comboni"
        },
        "effectiveDateTime": "2025-06-17T22:00:01Z"
      }
    },
    {
      "fullUrl": "urn:uuid:a70bfa62-2440-4d28-9b7d-a4d192a27e45",
      "resource": {
        "resourceType": "Observation",
        "id": "a70bfa62-2440-4d28-9b7d-a4d192a27e45",
        "meta": {
          "profile": [
            "http://hl7.eu/fhir/laboratory/StructureDefinition/Observation-resultslab-eu-lab"
          ]
        },
        "performer": [
          {
            "display": "The Central European Lab"
          }
        ],
        "category": [
          {
            "coding": [
              {
                "system": "http://terminology.hl7.org/CodeSystem/observation-category",
                "code": "laboratory"
              }
            ]
          }
        ],
        "code": {
          "coding": [
            {
              "code": "2885-2",
              "system": "http://loinc.org",
              "display": "Protein [Mass/volume] in Serum or Plasma"
            }
          ],
          "text": "Protein [Mass/volume] in Serum or Plasma"
        },
        "valueQuantity": {
          "system": "http://unitsofmeasure.org",
          "value": 7.1,
          "unit": "g/dL",
          "code": "g/dL"
        },
        "referenceRange": [
          {
            "low": {
              "value": 6.6,
              "code": "g/dL",
              "system": "http://unitsofmeasure.org"
            }
          },
          {
            "high": {
              "value": 8.3,
              "code": "g/dL",
              "system": "http://unitsofmeasure.org"
            }
          }
        ],
        "text": {
          "status": "generated",
          "div": "<div xmlns=\"http://www.w3.org/1999/xhtml\"><table class=\"hl7__eu__lab__report\"><tr><th>Test</th><th>18-Jun-2025</th><th>Reference&#xA0;Range</th><th>Unit</th></tr><tr><td>Protein [Mass/volume] in Serum or Plasma</td><td>7.1</td><td>6.6 - 8.3</td><td></td><td>g/dL</td></tr></table></div>"
        },
        "status": "final",
        "subject": {
          "reference": "urn:uuid:1e581e72-c723-4b29-a01e-82a12e7f8edd",
          "display": "Ignazio Comboni"
        },
        "effectiveDateTime": "2025-06-17T22:00:01Z"
      }
    },
    {
      "fullUrl": "urn:uuid:d56b26b9-4587-4370-89a8-321341bcc3bf",
      "resource": {
        "resourceType": "Observation",
        "id": "d56b26b9-4587-4370-89a8-321341bcc3bf",
        "meta": {
          "profile": [
            "http://hl7.eu/fhir/laboratory/StructureDefinition/Observation-resultslab-eu-lab"
          ]
        },
        "performer": [
          {
            "display": "The Central European Lab"
          }
        ],
        "category": [
          {
            "coding": [
              {
                "system": "http://terminology.hl7.org/CodeSystem/observation-category",
                "code": "laboratory"
              }
            ]
          }
        ],
        "code": {
          "coding": [
            {
              "code": "1751-7",
              "system": "http://loinc.org",
              "display": "Albumin [Mass/volume] in Serum or Plasma"
            }
          ],
          "text": "Albumin [Mass/volume] in Serum or Plasma"
        },
        "valueQuantity": {
          "system": "http://unitsofmeasure.org",
          "value": 5.4,
          "unit": "g/dL",
          "code": "g/dL"
        },
        "referenceRange": [
          {
            "low": {
              "value": 3.5,
              "code": "g/dL",
              "system": "http://unitsofmeasure.org"
            }
          },
          {
            "high": {
              "value": 5.5,
              "code": "g/dL",
              "system": "http://unitsofmeasure.org"
            }
          }
        ],
        "text": {
          "status": "generated",
          "div": "<div xmlns=\"http://www.w3.org/1999/xhtml\"><table class=\"hl7__eu__lab__report\"><tr><th>Test</th><th>18-Jun-2025</th><th>Reference&#xA0;Range</th><th>Unit</th></tr><tr><td>Albumin [Mass/volume] in Serum or Plasma</td><td>5.4</td><td>3.5 - 5.5</td><td></td><td>g/dL</td></tr></table></div>"
        },
        "status": "final",
        "subject": {
          "reference": "urn:uuid:1e581e72-c723-4b29-a01e-82a12e7f8edd",
          "display": "Ignazio Comboni"
        },
        "effectiveDateTime": "2025-06-17T22:00:01Z"
      }
    },
    {
      "fullUrl": "urn:uuid:71853ef1-0daf-4cea-9977-ae019a6899ee",
      "resource": {
        "resourceType": "Observation",
        "id": "71853ef1-0daf-4cea-9977-ae019a6899ee",
        "meta": {
          "profile": [
            "http://hl7.eu/fhir/laboratory/StructureDefinition/Observation-resultslab-eu-lab"
          ]
        },
        "performer": [
          {
            "display": "The Central European Lab"
          }
        ],
        "category": [
          {
            "coding": [
              {
                "system": "http://terminology.hl7.org/CodeSystem/observation-category",
                "code": "laboratory"
              }
            ]
          }
        ],
        "code": {
          "coding": [
            {
              "code": "10834-0",
              "system": "http://loinc.org",
              "display": "Globulin [Mass/volume] in Serum by calculation"
            }
          ],
          "text": "Globulin [Mass/volume] in Serum by calculation"
        },
        "valueQuantity": {
          "system": "http://unitsofmeasure.org",
          "value": 2,
          "unit": "g/L",
          "code": "g/L"
        },
        "referenceRange": [
          {
            "low": {
              "value": 2,
              "code": "g/L",
              "system": "http://unitsofmeasure.org"
            }
          },
          {
            "high": {
              "value": 3.5,
              "code": "g/L",
              "system": "http://unitsofmeasure.org"
            }
          }
        ],
        "text": {
          "status": "generated",
          "div": "<div xmlns=\"http://www.w3.org/1999/xhtml\"><table class=\"hl7__eu__lab__report\"><tr><th>Test</th><th>18-Jun-2025</th><th>Reference&#xA0;Range</th><th>Unit</th></tr><tr><td>Globulin [Mass/volume] in Serum by calculation</td><td>2.0</td><td>2 - 3.5</td><td></td><td>g/L</td></tr></table></div>"
        },
        "status": "final",
        "subject": {
          "reference": "urn:uuid:1e581e72-c723-4b29-a01e-82a12e7f8edd",
          "display": "Ignazio Comboni"
        },
        "effectiveDateTime": "2025-06-17T22:00:01Z"
      }
    },
    {
      "fullUrl": "urn:uuid:23b4e332-c778-45a3-818c-8811b5d4f3f9",
      "resource": {
        "resourceType": "Observation",
        "id": "23b4e332-c778-45a3-818c-8811b5d4f3f9",
        "meta": {
          "profile": [
            "http://hl7.eu/fhir/laboratory/StructureDefinition/Observation-resultslab-eu-lab"
          ]
        },
        "performer": [
          {
            "display": "The Central European Lab"
          }
        ],
        "category": [
          {
            "coding": [
              {
                "system": "http://terminology.hl7.org/CodeSystem/observation-category",
                "code": "laboratory"
              }
            ]
          }
        ],
        "code": {
          "coding": [
            {
              "code": "1975-2",
              "system": "http://loinc.org",
              "display": "Bilirubin.total [Mass/volume] in Serum or Plasma"
            }
          ],
          "text": "Bilirubin.total [Mass/volume] in Serum or Plasma"
        },
        "valueQuantity": {
          "system": "http://unitsofmeasure.org",
          "value": 1,
          "unit": "mg/dL",
          "code": "mg/dL"
        },
        "referenceRange": [
          {
            "low": {
              "value": 0.2,
              "code": "mg/dL",
              "system": "http://unitsofmeasure.org"
            }
          },
          {
            "high": {
              "value": 1.2,
              "code": "mg/dL",
              "system": "http://unitsofmeasure.org"
            }
          }
        ],
        "text": {
          "status": "generated",
          "div": "<div xmlns=\"http://www.w3.org/1999/xhtml\"><table class=\"hl7__eu__lab__report\"><tr><th>Test</th><th>18-Jun-2025</th><th>Reference&#xA0;Range</th><th>Unit</th></tr><tr><td>Bilirubin.total [Mass/volume] in Serum or Plasma</td><td>1.0</td><td>0.2 - 1.2</td><td></td><td>mg/dL</td></tr></table></div>"
        },
        "status": "final",
        "subject": {
          "reference": "urn:uuid:1e581e72-c723-4b29-a01e-82a12e7f8edd",
          "display": "Ignazio Comboni"
        },
        "effectiveDateTime": "2025-06-17T22:00:01Z"
      }
    },
    {
      "fullUrl": "urn:uuid:1e58147f-8132-4b5a-8b1f-36daa87cb24b",
      "resource": {
        "resourceType": "Observation",
        "id": "1e58147f-8132-4b5a-8b1f-36daa87cb24b",
        "meta": {
          "profile": [
            "http://hl7.eu/fhir/laboratory/StructureDefinition/Observation-resultslab-eu-lab"
          ]
        },
        "performer": [
          {
            "display": "The Central European Lab"
          }
        ],
        "category": [
          {
            "coding": [
              {
                "system": "http://terminology.hl7.org/CodeSystem/observation-category",
                "code": "laboratory"
              }
            ]
          }
        ],
        "code": {
          "coding": [
            {
              "code": "6768-6",
              "system": "http://loinc.org",
              "display": "Alkaline phosphatase [Enzymatic activity/volume] in Serum or Plasma"
            }
          ],
          "text": "Alkaline phosphatase [Enzymatic activity/volume] in Serum or Plasma"
        },
        "valueQuantity": {
          "system": "http://unitsofmeasure.org",
          "value": 56.1,
          "unit": "U/L",
          "code": "U/L"
        },
        "referenceRange": [
          {
            "low": {
              "value": 40,
              "code": "U/L",
              "system": "http://unitsofmeasure.org"
            }
          },
          {
            "high": {
              "value": 117,
              "code": "U/L",
              "system": "http://unitsofmeasure.org"
            }
          }
        ],
        "text": {
          "status": "generated",
          "div": "<div xmlns=\"http://www.w3.org/1999/xhtml\"><table class=\"hl7__eu__lab__report\"><tr><th>Test</th><th>18-Jun-2025</th><th>Reference&#xA0;Range</th><th>Unit</th></tr><tr><td>Alkaline phosphatase [Enzymatic activity/volume] in Serum or Plasma</td><td>56.1</td><td>40 - 117</td><td></td><td>U/L</td></tr></table></div>"
        },
        "status": "final",
        "subject": {
          "reference": "urn:uuid:1e581e72-c723-4b29-a01e-82a12e7f8edd",
          "display": "Ignazio Comboni"
        },
        "effectiveDateTime": "2025-06-17T22:00:01Z"
      }
    },
    {
      "fullUrl": "urn:uuid:deedf919-eed7-493f-9faa-914397e8617e",
      "resource": {
        "resourceType": "Observation",
        "id": "deedf919-eed7-493f-9faa-914397e8617e",
        "meta": {
          "profile": [
            "http://hl7.eu/fhir/laboratory/StructureDefinition/Observation-resultslab-eu-lab"
          ]
        },
        "performer": [
          {
            "display": "The Central European Lab"
          }
        ],
        "category": [
          {
            "coding": [
              {
                "system": "http://terminology.hl7.org/CodeSystem/observation-category",
                "code": "laboratory"
              }
            ]
          }
        ],
        "code": {
          "coding": [
            {
              "code": "1742-6",
              "system": "http://loinc.org",
              "display": "Alanine aminotransferase [Enzymatic activity/volume] in Serum or Plasma"
            }
          ],
          "text": "Alanine aminotransferase [Enzymatic activity/volume] in Serum or Plasma"
        },
        "valueQuantity": {
          "system": "http://unitsofmeasure.org",
          "value": 40.3,
          "unit": "U/L",
          "code": "U/L"
        },
        "referenceRange": [
          {
            "low": {
              "value": 7,
              "code": "U/L",
              "system": "http://unitsofmeasure.org"
            }
          },
          {
            "high": {
              "value": 63,
              "code": "U/L",
              "system": "http://unitsofmeasure.org"
            }
          }
        ],
        "text": {
          "status": "generated",
          "div": "<div xmlns=\"http://www.w3.org/1999/xhtml\"><table class=\"hl7__eu__lab__report\"><tr><th>Test</th><th>18-Jun-2025</th><th>Reference&#xA0;Range</th><th>Unit</th></tr><tr><td>Alanine aminotransferase [Enzymatic activity/volume] in Serum or Plasma</td><td>40.3</td><td>7 - 63</td><td></td><td>U/L</td></tr></table></div>"
        },
        "status": "final",
        "subject": {
          "reference": "urn:uuid:1e581e72-c723-4b29-a01e-82a12e7f8edd",
          "display": "Ignazio Comboni"
        },
        "effectiveDateTime": "2025-06-17T22:00:01Z"
      }
    },
    {
      "fullUrl": "urn:uuid:83ffbeec-05b0-462d-9aca-5d52cf7173c8",
      "resource": {
        "resourceType": "Observation",
        "id": "83ffbeec-05b0-462d-9aca-5d52cf7173c8",
        "meta": {
          "profile": [
            "http://hl7.eu/fhir/laboratory/StructureDefinition/Observation-resultslab-eu-lab"
          ]
        },
        "performer": [
          {
            "display": "The Central European Lab"
          }
        ],
        "category": [
          {
            "coding": [
              {
                "system": "http://terminology.hl7.org/CodeSystem/observation-category",
                "code": "laboratory"
              }
            ]
          }
        ],
        "code": {
          "coding": [
            {
              "code": "1920-8",
              "system": "http://loinc.org",
              "display": "Aspartate aminotransferase [Enzymatic activity/volume] in Serum or Plasma"
            }
          ],
          "text": "Aspartate aminotransferase [Enzymatic activity/volume] in Serum or Plasma"
        },
        "valueQuantity": {
          "system": "http://unitsofmeasure.org",
          "value": 18.5,
          "unit": "U/L",
          "code": "U/L"
        },
        "referenceRange": [
          {
            "low": {
              "value": 10,
              "code": "U/L",
              "system": "http://unitsofmeasure.org"
            }
          },
          {
            "high": {
              "value": 40,
              "code": "U/L",
              "system": "http://unitsofmeasure.org"
            }
          }
        ],
        "text": {
          "status": "generated",
          "div": "<div xmlns=\"http://www.w3.org/1999/xhtml\"><table class=\"hl7__eu__lab__report\"><tr><th>Test</th><th>18-Jun-2025</th><th>Reference&#xA0;Range</th><th>Unit</th></tr><tr><td>Aspartate aminotransferase [Enzymatic activity/volume] in Serum or Plasma</td><td>18.5</td><td>10 - 40</td><td></td><td>U/L</td></tr></table></div>"
        },
        "status": "final",
        "subject": {
          "reference": "urn:uuid:1e581e72-c723-4b29-a01e-82a12e7f8edd",
          "display": "Ignazio Comboni"
        },
        "effectiveDateTime": "2025-06-17T22:00:01Z"
      }
    },
    {
      "fullUrl": "urn:uuid:0c01537d-aa21-4cae-9799-33bd774a5f90",
      "resource": {
        "resourceType": "Observation",
        "id": "0c01537d-aa21-4cae-9799-33bd774a5f90",
        "meta": {
          "profile": [
            "http://hl7.eu/fhir/laboratory/StructureDefinition/Observation-resultslab-eu-lab"
          ]
        },
        "performer": [
          {
            "display": "The Central European Lab"
          }
        ],
        "category": [
          {
            "coding": [
              {
                "system": "http://terminology.hl7.org/CodeSystem/observation-category",
                "code": "laboratory"
              }
            ]
          }
        ],
        "code": {
          "coding": [
            {
              "code": "5767-9",
              "system": "http://loinc.org",
              "display": "Appearance of Urine"
            }
          ],
          "text": "Appearance of Urine"
        },
        "text": {
          "status": "generated",
          "div": "<div xmlns=\"http://www.w3.org/1999/xhtml\"><table class=\"hl7__eu__lab__report\"><tr><th>Test</th><th>18-Jun-2025</th><th>Reference&#xA0;Range</th><th>Unit</th></tr><tr><td>Appearance of Urine</td></tr></table></div>"
        },
        "status": "final",
        "subject": {
          "reference": "urn:uuid:1e581e72-c723-4b29-a01e-82a12e7f8edd",
          "display": "Ignazio Comboni"
        },
        "effectiveDateTime": "2025-06-17T22:00:01Z"
      }
    },
    {
      "fullUrl": "urn:uuid:9d07f6fb-3bdc-404e-b436-e5a0fb9bd042",
      "resource": {
        "resourceType": "Observation",
        "id": "9d07f6fb-3bdc-404e-b436-e5a0fb9bd042",
        "meta": {
          "profile": [
            "http://hl7.eu/fhir/laboratory/StructureDefinition/Observation-resultslab-eu-lab"
          ]
        },
        "performer": [
          {
            "display": "The Central European Lab"
          }
        ],
        "category": [
          {
            "coding": [
              {
                "system": "http://terminology.hl7.org/CodeSystem/observation-category",
                "code": "laboratory"
              }
            ]
          }
        ],
        "code": {
          "coding": [
            {
              "code": "34533-0",
              "system": "http://loinc.org",
              "display": "Odor of Urine"
            }
          ],
          "text": "Odor of Urine"
        },
        "text": {
          "status": "generated",
          "div": "<div xmlns=\"http://www.w3.org/1999/xhtml\"><table class=\"hl7__eu__lab__report\"><tr><th>Test</th><th>18-Jun-2025</th><th>Reference&#xA0;Range</th><th>Unit</th></tr><tr><td>Odor of Urine</td></tr></table></div>"
        },
        "status": "final",
        "subject": {
          "reference": "urn:uuid:1e581e72-c723-4b29-a01e-82a12e7f8edd",
          "display": "Ignazio Comboni"
        },
        "effectiveDateTime": "2025-06-17T22:00:01Z"
      }
    },
    {
      "fullUrl": "urn:uuid:9bf3c558-c5ff-4330-8bdc-19741cfd7122",
      "resource": {
        "resourceType": "Observation",
        "id": "9bf3c558-c5ff-4330-8bdc-19741cfd7122",
        "meta": {
          "profile": [
            "http://hl7.eu/fhir/laboratory/StructureDefinition/Observation-resultslab-eu-lab"
          ]
        },
        "performer": [
          {
            "display": "The Central European Lab"
          }
        ],
        "category": [
          {
            "coding": [
              {
                "system": "http://terminology.hl7.org/CodeSystem/observation-category",
                "code": "laboratory"
              }
            ]
          }
        ],
        "code": {
          "coding": [
            {
              "code": "32167-9",
              "system": "http://loinc.org",
              "display": "Clarity of Urine"
            }
          ],
          "text": "Clarity of Urine"
        },
        "text": {
          "status": "generated",
          "div": "<div xmlns=\"http://www.w3.org/1999/xhtml\"><table class=\"hl7__eu__lab__report\"><tr><th>Test</th><th>18-Jun-2025</th><th>Reference&#xA0;Range</th><th>Unit</th></tr><tr><td>Clarity of Urine</td></tr></table></div>"
        },
        "status": "final",
        "subject": {
          "reference": "urn:uuid:1e581e72-c723-4b29-a01e-82a12e7f8edd",
          "display": "Ignazio Comboni"
        },
        "effectiveDateTime": "2025-06-17T22:00:01Z"
      }
    },
    {
      "fullUrl": "urn:uuid:95de60d0-b660-4fdc-bee3-c228e20b72a5",
      "resource": {
        "resourceType": "Observation",
        "id": "95de60d0-b660-4fdc-bee3-c228e20b72a5",
        "meta": {
          "profile": [
            "http://hl7.eu/fhir/laboratory/StructureDefinition/Observation-resultslab-eu-lab"
          ]
        },
        "performer": [
          {
            "display": "The Central European Lab"
          }
        ],
        "category": [
          {
            "coding": [
              {
                "system": "http://terminology.hl7.org/CodeSystem/observation-category",
                "code": "laboratory"
              }
            ]
          }
        ],
        "code": {
          "coding": [
            {
              "code": "5778-6",
              "system": "http://loinc.org",
              "display": "Color of Urine"
            }
          ],
          "text": "Color of Urine"
        },
        "text": {
          "status": "generated",
          "div": "<div xmlns=\"http://www.w3.org/1999/xhtml\"><table class=\"hl7__eu__lab__report\"><tr><th>Test</th><th>18-Jun-2025</th><th>Reference&#xA0;Range</th><th>Unit</th></tr><tr><td>Color of Urine</td></tr></table></div>"
        },
        "status": "final",
        "subject": {
          "reference": "urn:uuid:1e581e72-c723-4b29-a01e-82a12e7f8edd",
          "display": "Ignazio Comboni"
        },
        "effectiveDateTime": "2025-06-17T22:00:01Z"
      }
    },
    {
      "fullUrl": "urn:uuid:52fa06b8-9ea4-4958-b889-deae55eee091",
      "resource": {
        "resourceType": "Observation",
        "id": "52fa06b8-9ea4-4958-b889-deae55eee091",
        "meta": {
          "profile": [
            "http://hl7.eu/fhir/laboratory/StructureDefinition/Observation-resultslab-eu-lab"
          ]
        },
        "performer": [
          {
            "display": "The Central European Lab"
          }
        ],
        "category": [
          {
            "coding": [
              {
                "system": "http://terminology.hl7.org/CodeSystem/observation-category",
                "code": "laboratory"
              }
            ]
          }
        ],
        "code": {
          "coding": [
            {
              "code": "5792-7",
              "system": "http://loinc.org",
              "display": "Glucose [Mass/volume] in Urine by Test strip"
            }
          ],
          "text": "Glucose [Mass/volume] in Urine by Test strip"
        },
        "valueQuantity": {
          "system": "http://unitsofmeasure.org",
          "value": 1.2,
          "unit": "mg/dL",
          "code": "mg/dL"
        },
        "referenceRange": [
          {
            "low": {
              "value": 0,
              "code": "mg/dL",
              "system": "http://unitsofmeasure.org"
            }
          },
          {
            "high": {
              "value": 0.8,
              "code": "mg/dL",
              "system": "http://unitsofmeasure.org"
            }
          }
        ],
        "interpretation": [
          {
            "coding": [
              {
                "code": "H",
                "system": "http://terminology.hl7.org/CodeSystem/v3-ObservationInterpretation",
                "display": "High"
              }
            ]
          }
        ],
        "text": {
          "status": "generated",
          "div": "<div xmlns=\"http://www.w3.org/1999/xhtml\"><table class=\"hl7__eu__lab__report\"><tr><th>Test</th><th>18-Jun-2025</th><th>Reference&#xA0;Range</th><th>Unit</th></tr><tr><td>Glucose [Mass/volume] in Urine by Test strip</td><td>1.2</td><td>0 - 0.8</td><td>H</td><td>mg/dL</td></tr></table></div>"
        },
        "status": "final",
        "subject": {
          "reference": "urn:uuid:1e581e72-c723-4b29-a01e-82a12e7f8edd",
          "display": "Ignazio Comboni"
        },
        "effectiveDateTime": "2025-06-17T22:00:01Z"
      }
    },
    {
      "fullUrl": "urn:uuid:e6b308e5-d218-4fe2-a040-eae80212f87d",
      "resource": {
        "resourceType": "Observation",
        "id": "e6b308e5-d218-4fe2-a040-eae80212f87d",
        "meta": {
          "profile": [
            "http://hl7.eu/fhir/laboratory/StructureDefinition/Observation-resultslab-eu-lab"
          ]
        },
        "performer": [
          {
            "display": "The Central European Lab"
          }
        ],
        "category": [
          {
            "coding": [
              {
                "system": "http://terminology.hl7.org/CodeSystem/observation-category",
                "code": "laboratory"
              }
            ]
          }
        ],
        "code": {
          "coding": [
            {
              "code": "25428-4",
              "system": "http://loinc.org",
              "display": "Glucose [Presence] in Urine by Test strip"
            }
          ],
          "text": "Glucose [Presence] in Urine by Test strip"
        },
        "text": {
          "status": "generated",
          "div": "<div xmlns=\"http://www.w3.org/1999/xhtml\"><table class=\"hl7__eu__lab__report\"><tr><th>Test</th><th>18-Jun-2025</th><th>Reference&#xA0;Range</th><th>Unit</th></tr><tr><td>Glucose [Presence] in Urine by Test strip</td></tr></table></div>"
        },
        "status": "final",
        "subject": {
          "reference": "urn:uuid:1e581e72-c723-4b29-a01e-82a12e7f8edd",
          "display": "Ignazio Comboni"
        },
        "effectiveDateTime": "2025-06-17T22:00:01Z"
      }
    },
    {
      "fullUrl": "urn:uuid:aedd867a-edbe-4c21-bd95-fc5be1be1832",
      "resource": {
        "resourceType": "Observation",
        "id": "aedd867a-edbe-4c21-bd95-fc5be1be1832",
        "meta": {
          "profile": [
            "http://hl7.eu/fhir/laboratory/StructureDefinition/Observation-resultslab-eu-lab"
          ]
        },
        "performer": [
          {
            "display": "The Central European Lab"
          }
        ],
        "category": [
          {
            "coding": [
              {
                "system": "http://terminology.hl7.org/CodeSystem/observation-category",
                "code": "laboratory"
              }
            ]
          }
        ],
        "code": {
          "coding": [
            {
              "code": "20505-4",
              "system": "http://loinc.org",
              "display": "Bilirubin.total [Mass/volume] in Urine by Test strip"
            }
          ],
          "text": "Bilirubin.total [Mass/volume] in Urine by Test strip"
        },
        "valueQuantity": {
          "system": "http://unitsofmeasure.org",
          "value": 0.8,
          "unit": "mg/dL",
          "code": "mg/dL"
        },
        "referenceRange": [
          {
            "low": {
              "value": 0,
              "code": "mg/dL",
              "system": "http://unitsofmeasure.org"
            }
          },
          {
            "high": {
              "value": 1,
              "code": "mg/dL",
              "system": "http://unitsofmeasure.org"
            }
          }
        ],
        "text": {
          "status": "generated",
          "div": "<div xmlns=\"http://www.w3.org/1999/xhtml\"><table class=\"hl7__eu__lab__report\"><tr><th>Test</th><th>18-Jun-2025</th><th>Reference&#xA0;Range</th><th>Unit</th></tr><tr><td>Bilirubin.total [Mass/volume] in Urine by Test strip</td><td>0.8</td><td>0 - 1</td><td></td><td>mg/dL</td></tr></table></div>"
        },
        "status": "final",
        "subject": {
          "reference": "urn:uuid:1e581e72-c723-4b29-a01e-82a12e7f8edd",
          "display": "Ignazio Comboni"
        },
        "effectiveDateTime": "2025-06-17T22:00:01Z"
      }
    },
    {
      "fullUrl": "urn:uuid:601daeef-2ff2-466e-acfe-87b7831eafd8",
      "resource": {
        "resourceType": "Observation",
        "id": "601daeef-2ff2-466e-acfe-87b7831eafd8",
        "meta": {
          "profile": [
            "http://hl7.eu/fhir/laboratory/StructureDefinition/Observation-resultslab-eu-lab"
          ]
        },
        "performer": [
          {
            "display": "The Central European Lab"
          }
        ],
        "category": [
          {
            "coding": [
              {
                "system": "http://terminology.hl7.org/CodeSystem/observation-category",
                "code": "laboratory"
              }
            ]
          }
        ],
        "code": {
          "coding": [
            {
              "code": "5770-3",
              "system": "http://loinc.org",
              "display": "Bilirubin.total [Presence] in Urine by Test strip"
            }
          ],
          "text": "Bilirubin.total [Presence] in Urine by Test strip"
        },
        "text": {
          "status": "generated",
          "div": "<div xmlns=\"http://www.w3.org/1999/xhtml\"><table class=\"hl7__eu__lab__report\"><tr><th>Test</th><th>18-Jun-2025</th><th>Reference&#xA0;Range</th><th>Unit</th></tr><tr><td>Bilirubin.total [Presence] in Urine by Test strip</td></tr></table></div>"
        },
        "status": "final",
        "subject": {
          "reference": "urn:uuid:1e581e72-c723-4b29-a01e-82a12e7f8edd",
          "display": "Ignazio Comboni"
        },
        "effectiveDateTime": "2025-06-17T22:00:01Z"
      }
    },
    {
      "fullUrl": "urn:uuid:85280616-8459-4ceb-bbdf-91e694f054cd",
      "resource": {
        "resourceType": "Observation",
        "id": "85280616-8459-4ceb-bbdf-91e694f054cd",
        "meta": {
          "profile": [
            "http://hl7.eu/fhir/laboratory/StructureDefinition/Observation-resultslab-eu-lab"
          ]
        },
        "performer": [
          {
            "display": "The Central European Lab"
          }
        ],
        "category": [
          {
            "coding": [
              {
                "system": "http://terminology.hl7.org/CodeSystem/observation-category",
                "code": "laboratory"
              }
            ]
          }
        ],
        "code": {
          "coding": [
            {
              "code": "5797-6",
              "system": "http://loinc.org",
              "display": "Ketones [Mass/volume] in Urine by Test strip"
            }
          ],
          "text": "Ketones [Mass/volume] in Urine by Test strip"
        },
        "valueQuantity": {
          "system": "http://unitsofmeasure.org",
          "value": 5.1,
          "unit": "mg/dL",
          "code": "mg/dL"
        },
        "referenceRange": [
          {
            "low": {
              "value": 0,
              "code": "mg/dL",
              "system": "http://unitsofmeasure.org"
            }
          },
          {
            "high": {
              "value": 4,
              "code": "mg/dL",
              "system": "http://unitsofmeasure.org"
            }
          }
        ],
        "interpretation": [
          {
            "coding": [
              {
                "code": "H",
                "system": "http://terminology.hl7.org/CodeSystem/v3-ObservationInterpretation",
                "display": "High"
              }
            ]
          }
        ],
        "text": {
          "status": "generated",
          "div": "<div xmlns=\"http://www.w3.org/1999/xhtml\"><table class=\"hl7__eu__lab__report\"><tr><th>Test</th><th>18-Jun-2025</th><th>Reference&#xA0;Range</th><th>Unit</th></tr><tr><td>Ketones [Mass/volume] in Urine by Test strip</td><td>5.1</td><td>0 - 4</td><td>H</td><td>mg/dL</td></tr></table></div>"
        },
        "status": "final",
        "subject": {
          "reference": "urn:uuid:1e581e72-c723-4b29-a01e-82a12e7f8edd",
          "display": "Ignazio Comboni"
        },
        "effectiveDateTime": "2025-06-17T22:00:01Z"
      }
    },
    {
      "fullUrl": "urn:uuid:fe31761e-9cd5-4bad-8afd-d17fae21f68b",
      "resource": {
        "resourceType": "Observation",
        "id": "fe31761e-9cd5-4bad-8afd-d17fae21f68b",
        "meta": {
          "profile": [
            "http://hl7.eu/fhir/laboratory/StructureDefinition/Observation-resultslab-eu-lab"
          ]
        },
        "performer": [
          {
            "display": "The Central European Lab"
          }
        ],
        "category": [
          {
            "coding": [
              {
                "system": "http://terminology.hl7.org/CodeSystem/observation-category",
                "code": "laboratory"
              }
            ]
          }
        ],
        "code": {
          "coding": [
            {
              "code": "2514-8",
              "system": "http://loinc.org",
              "display": "Ketones [Presence] in Urine by Test strip"
            }
          ],
          "text": "Ketones [Presence] in Urine by Test strip"
        },
        "text": {
          "status": "generated",
          "div": "<div xmlns=\"http://www.w3.org/1999/xhtml\"><table class=\"hl7__eu__lab__report\"><tr><th>Test</th><th>18-Jun-2025</th><th>Reference&#xA0;Range</th><th>Unit</th></tr><tr><td>Ketones [Presence] in Urine by Test strip</td></tr></table></div>"
        },
        "status": "final",
        "subject": {
          "reference": "urn:uuid:1e581e72-c723-4b29-a01e-82a12e7f8edd",
          "display": "Ignazio Comboni"
        },
        "effectiveDateTime": "2025-06-17T22:00:01Z"
      }
    },
    {
      "fullUrl": "urn:uuid:0ecb611d-2de5-4a26-afa2-af7170de06f0",
      "resource": {
        "resourceType": "Observation",
        "id": "0ecb611d-2de5-4a26-afa2-af7170de06f0",
        "meta": {
          "profile": [
            "http://hl7.eu/fhir/laboratory/StructureDefinition/Observation-resultslab-eu-lab"
          ]
        },
        "performer": [
          {
            "display": "The Central European Lab"
          }
        ],
        "category": [
          {
            "coding": [
              {
                "system": "http://terminology.hl7.org/CodeSystem/observation-category",
                "code": "laboratory"
              }
            ]
          }
        ],
        "code": {
          "coding": [
            {
              "code": "5811-5",
              "system": "http://loinc.org",
              "display": "Specific gravity of Urine by Test strip"
            }
          ],
          "text": "Specific gravity of Urine by Test strip"
        },
        "valueQuantity": {
          "system": "http://unitsofmeasure.org",
          "value": 1,
          "unit": "{nominal}",
          "code": "{nominal}"
        },
        "referenceRange": [
          {
            "low": {
              "value": 1.005,
              "code": "g/mL",
              "system": "http://unitsofmeasure.org"
            }
          },
          {
            "high": {
              "value": 1.03,
              "code": "g/mL",
              "system": "http://unitsofmeasure.org"
            }
          }
        ],
        "interpretation": [
          {
            "coding": [
              {
                "code": "L",
                "system": "http://terminology.hl7.org/CodeSystem/v3-ObservationInterpretation",
                "display": "Low"
              }
            ]
          }
        ],
        "text": {
          "status": "generated",
          "div": "<div xmlns=\"http://www.w3.org/1999/xhtml\"><table class=\"hl7__eu__lab__report\"><tr><th>Test</th><th>18-Jun-2025</th><th>Reference&#xA0;Range</th><th>Unit</th></tr><tr><td>Specific gravity of Urine by Test strip</td><td>1.0</td><td>1.005 - 1.03</td><td>L</td><td>{nominal}</td></tr></table></div>"
        },
        "status": "final",
        "subject": {
          "reference": "urn:uuid:1e581e72-c723-4b29-a01e-82a12e7f8edd",
          "display": "Ignazio Comboni"
        },
        "effectiveDateTime": "2025-06-17T22:00:01Z"
      }
    },
    {
      "fullUrl": "urn:uuid:87cc205d-6190-49ff-8479-877399791669",
      "resource": {
        "resourceType": "Observation",
        "id": "87cc205d-6190-49ff-8479-877399791669",
        "meta": {
          "profile": [
            "http://hl7.eu/fhir/laboratory/StructureDefinition/Observation-resultslab-eu-lab"
          ]
        },
        "performer": [
          {
            "display": "The Central European Lab"
          }
        ],
        "category": [
          {
            "coding": [
              {
                "system": "http://terminology.hl7.org/CodeSystem/observation-category",
                "code": "laboratory"
              }
            ]
          }
        ],
        "code": {
          "coding": [
            {
              "code": "5803-2",
              "system": "http://loinc.org",
              "display": "pH of Urine by Test strip"
            }
          ],
          "text": "pH of Urine by Test strip"
        },
        "valueQuantity": {
          "system": "http://unitsofmeasure.org",
          "value": 7,
          "unit": "pH",
          "code": "pH"
        },
        "referenceRange": [
          {
            "low": {
              "value": 4.5,
              "code": "pH",
              "system": "http://unitsofmeasure.org"
            }
          },
          {
            "high": {
              "value": 7.5,
              "code": "pH",
              "system": "http://unitsofmeasure.org"
            }
          }
        ],
        "text": {
          "status": "generated",
          "div": "<div xmlns=\"http://www.w3.org/1999/xhtml\"><table class=\"hl7__eu__lab__report\"><tr><th>Test</th><th>18-Jun-2025</th><th>Reference&#xA0;Range</th><th>Unit</th></tr><tr><td>pH of Urine by Test strip</td><td>7.0</td><td>4.5 - 7.5</td><td></td><td>pH</td></tr></table></div>"
        },
        "status": "final",
        "subject": {
          "reference": "urn:uuid:1e581e72-c723-4b29-a01e-82a12e7f8edd",
          "display": "Ignazio Comboni"
        },
        "effectiveDateTime": "2025-06-17T22:00:01Z"
      }
    },
    {
      "fullUrl": "urn:uuid:0bad3b31-1119-4783-852a-055d6250b315",
      "resource": {
        "resourceType": "Observation",
        "id": "0bad3b31-1119-4783-852a-055d6250b315",
        "meta": {
          "profile": [
            "http://hl7.eu/fhir/laboratory/StructureDefinition/Observation-resultslab-eu-lab"
          ]
        },
        "performer": [
          {
            "display": "The Central European Lab"
          }
        ],
        "category": [
          {
            "coding": [
              {
                "system": "http://terminology.hl7.org/CodeSystem/observation-category",
                "code": "laboratory"
              }
            ]
          }
        ],
        "code": {
          "coding": [
            {
              "code": "5804-0",
              "system": "http://loinc.org",
              "display": "Protein [Mass/volume] in Urine by Test strip"
            }
          ],
          "text": "Protein [Mass/volume] in Urine by Test strip"
        },
        "valueQuantity": {
          "system": "http://unitsofmeasure.org",
          "value": 350.4,
          "unit": "mg/dL",
          "code": "mg/dL"
        },
        "referenceRange": [
          {
            "low": {
              "value": 0,
              "code": "mg/dL",
              "system": "http://unitsofmeasure.org"
            }
          },
          {
            "high": {
              "value": 150,
              "code": "mg/dL",
              "system": "http://unitsofmeasure.org"
            }
          }
        ],
        "interpretation": [
          {
            "coding": [
              {
                "code": "H",
                "system": "http://terminology.hl7.org/CodeSystem/v3-ObservationInterpretation",
                "display": "High"
              }
            ]
          }
        ],
        "text": {
          "status": "generated",
          "div": "<div xmlns=\"http://www.w3.org/1999/xhtml\"><table class=\"hl7__eu__lab__report\"><tr><th>Test</th><th>18-Jun-2025</th><th>Reference&#xA0;Range</th><th>Unit</th></tr><tr><td>Protein [Mass/volume] in Urine by Test strip</td><td>350.4</td><td>0 - 150</td><td>H</td><td>mg/dL</td></tr></table></div>"
        },
        "status": "final",
        "subject": {
          "reference": "urn:uuid:1e581e72-c723-4b29-a01e-82a12e7f8edd",
          "display": "Ignazio Comboni"
        },
        "effectiveDateTime": "2025-06-17T22:00:01Z"
      }
    },
    {
      "fullUrl": "urn:uuid:d65a9af9-58f5-424c-998a-b3dc02c60125",
      "resource": {
        "resourceType": "Observation",
        "id": "d65a9af9-58f5-424c-998a-b3dc02c60125",
        "meta": {
          "profile": [
            "http://hl7.eu/fhir/laboratory/StructureDefinition/Observation-resultslab-eu-lab"
          ]
        },
        "performer": [
          {
            "display": "The Central European Lab"
          }
        ],
        "category": [
          {
            "coding": [
              {
                "system": "http://terminology.hl7.org/CodeSystem/observation-category",
                "code": "laboratory"
              }
            ]
          }
        ],
        "code": {
          "coding": [
            {
              "code": "20454-5",
              "system": "http://loinc.org",
              "display": "Protein [Presence] in Urine by Test strip"
            }
          ],
          "text": "Protein [Presence] in Urine by Test strip"
        },
        "text": {
          "status": "generated",
          "div": "<div xmlns=\"http://www.w3.org/1999/xhtml\"><table class=\"hl7__eu__lab__report\"><tr><th>Test</th><th>18-Jun-2025</th><th>Reference&#xA0;Range</th><th>Unit</th></tr><tr><td>Protein [Presence] in Urine by Test strip</td></tr></table></div>"
        },
        "status": "final",
        "subject": {
          "reference": "urn:uuid:1e581e72-c723-4b29-a01e-82a12e7f8edd",
          "display": "Ignazio Comboni"
        },
        "effectiveDateTime": "2025-06-17T22:00:01Z"
      }
    },
    {
      "fullUrl": "urn:uuid:32ba8512-783e-46c1-8cac-fa9cf9a65640",
      "resource": {
        "resourceType": "Observation",
        "id": "32ba8512-783e-46c1-8cac-fa9cf9a65640",
        "meta": {
          "profile": [
            "http://hl7.eu/fhir/laboratory/StructureDefinition/Observation-resultslab-eu-lab"
          ]
        },
        "performer": [
          {
            "display": "The Central European Lab"
          }
        ],
        "category": [
          {
            "coding": [
              {
                "system": "http://terminology.hl7.org/CodeSystem/observation-category",
                "code": "laboratory"
              }
            ]
          }
        ],
        "code": {
          "coding": [
            {
              "code": "5802-4",
              "system": "http://loinc.org",
              "display": "Nitrite [Presence] in Urine by Test strip"
            }
          ],
          "text": "Nitrite [Presence] in Urine by Test strip"
        },
        "text": {
          "status": "generated",
          "div": "<div xmlns=\"http://www.w3.org/1999/xhtml\"><table class=\"hl7__eu__lab__report\"><tr><th>Test</th><th>18-Jun-2025</th><th>Reference&#xA0;Range</th><th>Unit</th></tr><tr><td>Nitrite [Presence] in Urine by Test strip</td></tr></table></div>"
        },
        "status": "final",
        "subject": {
          "reference": "urn:uuid:1e581e72-c723-4b29-a01e-82a12e7f8edd",
          "display": "Ignazio Comboni"
        },
        "effectiveDateTime": "2025-06-17T22:00:01Z"
      }
    },
    {
      "fullUrl": "urn:uuid:523ca35f-a7c6-4700-89b3-9cf78fcfe011",
      "resource": {
        "resourceType": "Observation",
        "id": "523ca35f-a7c6-4700-89b3-9cf78fcfe011",
        "meta": {
          "profile": [
            "http://hl7.eu/fhir/laboratory/StructureDefinition/Observation-resultslab-eu-lab"
          ]
        },
        "performer": [
          {
            "display": "The Central European Lab"
          }
        ],
        "category": [
          {
            "coding": [
              {
                "system": "http://terminology.hl7.org/CodeSystem/observation-category",
                "code": "laboratory"
              }
            ]
          }
        ],
        "code": {
          "coding": [
            {
              "code": "5794-3",
              "system": "http://loinc.org",
              "display": "Hemoglobin [Presence] in Urine by Test strip"
            }
          ],
          "text": "Hemoglobin [Presence] in Urine by Test strip"
        },
        "text": {
          "status": "generated",
          "div": "<div xmlns=\"http://www.w3.org/1999/xhtml\"><table class=\"hl7__eu__lab__report\"><tr><th>Test</th><th>18-Jun-2025</th><th>Reference&#xA0;Range</th><th>Unit</th></tr><tr><td>Hemoglobin [Presence] in Urine by Test strip</td></tr></table></div>"
        },
        "status": "final",
        "subject": {
          "reference": "urn:uuid:1e581e72-c723-4b29-a01e-82a12e7f8edd",
          "display": "Ignazio Comboni"
        },
        "effectiveDateTime": "2025-06-17T22:00:01Z"
      }
    },
    {
      "fullUrl": "urn:uuid:bfa4f91b-1bcb-4171-8deb-daca31f90b6c",
      "resource": {
        "resourceType": "Observation",
        "id": "bfa4f91b-1bcb-4171-8deb-daca31f90b6c",
        "meta": {
          "profile": [
            "http://hl7.eu/fhir/laboratory/StructureDefinition/Observation-resultslab-eu-lab"
          ]
        },
        "performer": [
          {
            "display": "The Central European Lab"
          }
        ],
        "category": [
          {
            "coding": [
              {
                "system": "http://terminology.hl7.org/CodeSystem/observation-category",
                "code": "laboratory"
              }
            ]
          }
        ],
        "code": {
          "coding": [
            {
              "code": "5799-2",
              "system": "http://loinc.org",
              "display": "Leukocyte esterase [Presence] in Urine by Test strip"
            }
          ],
          "text": "Leukocyte esterase [Presence] in Urine by Test strip"
        },
        "text": {
          "status": "generated",
          "div": "<div xmlns=\"http://www.w3.org/1999/xhtml\"><table class=\"hl7__eu__lab__report\"><tr><th>Test</th><th>18-Jun-2025</th><th>Reference&#xA0;Range</th><th>Unit</th></tr><tr><td>Leukocyte esterase [Presence] in Urine by Test strip</td></tr></table></div>"
        },
        "status": "final",
        "subject": {
          "reference": "urn:uuid:1e581e72-c723-4b29-a01e-82a12e7f8edd",
          "display": "Ignazio Comboni"
        },
        "effectiveDateTime": "2025-06-17T22:00:01Z"
      }
    },
    {
      "fullUrl": "urn:uuid:76ef4c16-9e4a-4aa3-bce9-e71133d3c7dc",
      "resource": {
        "resourceType": "Observation",
        "id": "76ef4c16-9e4a-4aa3-bce9-e71133d3c7dc",
        "meta": {
          "profile": [
            "http://hl7.eu/fhir/laboratory/StructureDefinition/Observation-resultslab-eu-lab"
          ]
        },
        "performer": [
          {
            "display": "The Central European Lab"
          }
        ],
        "category": [
          {
            "coding": [
              {
                "system": "http://terminology.hl7.org/CodeSystem/observation-category",
                "code": "laboratory"
              }
            ]
          }
        ],
        "code": {
          "coding": [
            {
              "code": "6690-2",
              "system": "http://loinc.org",
              "display": "Leukocytes [#/volume] in Blood by Automated count"
            }
          ],
          "text": "Leukocytes [#/volume] in Blood by Automated count"
        },
        "valueQuantity": {
          "system": "http://unitsofmeasure.org",
          "value": 3.1,
          "unit": "10*3/uL",
          "code": "10*3/uL"
        },
        "referenceRange": [
          {
            "low": {
              "value": 3.4,
              "code": "10*3/uL",
              "system": "http://unitsofmeasure.org"
            }
          },
          {
            "high": {
              "value": 10.6,
              "code": "10*3/uL",
              "system": "http://unitsofmeasure.org"
            }
          }
        ],
        "interpretation": [
          {
            "coding": [
              {
                "code": "L",
                "system": "http://terminology.hl7.org/CodeSystem/v3-ObservationInterpretation",
                "display": "Low"
              }
            ]
          }
        ],
        "text": {
          "status": "generated",
          "div": "<div xmlns=\"http://www.w3.org/1999/xhtml\"><table class=\"hl7__eu__lab__report\"><tr><th>Test</th><th>18-Jun-2025</th><th>Reference&#xA0;Range</th><th>Unit</th></tr><tr><td>Leukocytes [#/volume] in Blood by Automated count</td><td>3.1</td><td>3.4 - 10.6</td><td>L</td><td>10*3/uL</td></tr></table></div>"
        },
        "status": "final",
        "subject": {
          "reference": "urn:uuid:1e581e72-c723-4b29-a01e-82a12e7f8edd",
          "display": "Ignazio Comboni"
        },
        "effectiveDateTime": "2025-06-17T22:00:01Z"
      }
    },
    {
      "fullUrl": "urn:uuid:68c77039-e02b-490d-8630-30a3d3fd2559",
      "resource": {
        "resourceType": "Observation",
        "id": "68c77039-e02b-490d-8630-30a3d3fd2559",
        "meta": {
          "profile": [
            "http://hl7.eu/fhir/laboratory/StructureDefinition/Observation-resultslab-eu-lab"
          ]
        },
        "performer": [
          {
            "display": "The Central European Lab"
          }
        ],
        "category": [
          {
            "coding": [
              {
                "system": "http://terminology.hl7.org/CodeSystem/observation-category",
                "code": "laboratory"
              }
            ]
          }
        ],
        "code": {
          "coding": [
            {
              "code": "789-8",
              "system": "http://loinc.org",
              "display": "Erythrocytes [#/volume] in Blood by Automated count"
            }
          ],
          "text": "Erythrocytes [#/volume] in Blood by Automated count"
        },
        "valueQuantity": {
          "system": "http://unitsofmeasure.org",
          "value": 5.5,
          "unit": "10*6/uL",
          "code": "10*6/uL"
        },
        "referenceRange": [
          {
            "low": {
              "value": 4.82,
              "code": "10*6/uL",
              "system": "http://unitsofmeasure.org"
            }
          },
          {
            "high": {
              "value": 5.72,
              "code": "10*6/uL",
              "system": "http://unitsofmeasure.org"
            }
          }
        ],
        "text": {
          "status": "generated",
          "div": "<div xmlns=\"http://www.w3.org/1999/xhtml\"><table class=\"hl7__eu__lab__report\"><tr><th>Test</th><th>18-Jun-2025</th><th>Reference&#xA0;Range</th><th>Unit</th></tr><tr><td>Erythrocytes [#/volume] in Blood by Automated count</td><td>5.5</td><td>4.82 - 5.72</td><td></td><td>10*6/uL</td></tr></table></div>"
        },
        "status": "final",
        "subject": {
          "reference": "urn:uuid:1e581e72-c723-4b29-a01e-82a12e7f8edd",
          "display": "Ignazio Comboni"
        },
        "effectiveDateTime": "2025-06-17T22:00:01Z"
      }
    },
    {
      "fullUrl": "urn:uuid:82c05787-6d6d-42ac-bb62-6ac62c60a894",
      "resource": {
        "resourceType": "Observation",
        "id": "82c05787-6d6d-42ac-bb62-6ac62c60a894",
        "meta": {
          "profile": [
            "http://hl7.eu/fhir/laboratory/StructureDefinition/Observation-resultslab-eu-lab"
          ]
        },
        "performer": [
          {
            "display": "The Central European Lab"
          }
        ],
        "category": [
          {
            "coding": [
              {
                "system": "http://terminology.hl7.org/CodeSystem/observation-category",
                "code": "laboratory"
              }
            ]
          }
        ],
        "code": {
          "coding": [
            {
              "code": "718-7",
              "system": "http://loinc.org",
              "display": "Hemoglobin [Mass/volume] in Blood"
            }
          ],
          "text": "Hemoglobin [Mass/volume] in Blood"
        },
        "valueQuantity": {
          "system": "http://unitsofmeasure.org",
          "value": 12.1,
          "unit": "g/dL",
          "code": "g/dL"
        },
        "referenceRange": [
          {
            "low": {
              "value": 13.5,
              "code": "g/dL",
              "system": "http://unitsofmeasure.org"
            }
          },
          {
            "high": {
              "value": 17.5,
              "code": "g/dL",
              "system": "http://unitsofmeasure.org"
            }
          }
        ],
        "interpretation": [
          {
            "coding": [
              {
                "code": "L",
                "system": "http://terminology.hl7.org/CodeSystem/v3-ObservationInterpretation",
                "display": "Low"
              }
            ]
          }
        ],
        "text": {
          "status": "generated",
          "div": "<div xmlns=\"http://www.w3.org/1999/xhtml\"><table class=\"hl7__eu__lab__report\"><tr><th>Test</th><th>18-Jun-2025</th><th>Reference&#xA0;Range</th><th>Unit</th></tr><tr><td>Hemoglobin [Mass/volume] in Blood</td><td>12.1</td><td>13.5 - 17.5</td><td>L</td><td>g/dL</td></tr></table></div>"
        },
        "status": "final",
        "subject": {
          "reference": "urn:uuid:1e581e72-c723-4b29-a01e-82a12e7f8edd",
          "display": "Ignazio Comboni"
        },
        "effectiveDateTime": "2025-06-17T22:00:01Z"
      }
    },
    {
      "fullUrl": "urn:uuid:1e77e4d5-4f98-4671-9879-1891313ee9a4",
      "resource": {
        "resourceType": "Observation",
        "id": "1e77e4d5-4f98-4671-9879-1891313ee9a4",
        "meta": {
          "profile": [
            "http://hl7.eu/fhir/laboratory/StructureDefinition/Observation-resultslab-eu-lab"
          ]
        },
        "performer": [
          {
            "display": "The Central European Lab"
          }
        ],
        "category": [
          {
            "coding": [
              {
                "system": "http://terminology.hl7.org/CodeSystem/observation-category",
                "code": "laboratory"
              }
            ]
          }
        ],
        "code": {
          "coding": [
            {
              "code": "4544-3",
              "system": "http://loinc.org",
              "display": "Hematocrit [Volume Fraction] of Blood by Automated count"
            }
          ],
          "text": "Hematocrit [Volume Fraction] of Blood by Automated count"
        },
        "valueQuantity": {
          "system": "http://unitsofmeasure.org",
          "value": 39,
          "unit": "%",
          "code": "%"
        },
        "referenceRange": [
          {
            "low": {
              "value": 37,
              "code": "%",
              "system": "http://unitsofmeasure.org"
            }
          },
          {
            "high": {
              "value": 52,
              "code": "%",
              "system": "http://unitsofmeasure.org"
            }
          }
        ],
        "text": {
          "status": "generated",
          "div": "<div xmlns=\"http://www.w3.org/1999/xhtml\"><table class=\"hl7__eu__lab__report\"><tr><th>Test</th><th>18-Jun-2025</th><th>Reference&#xA0;Range</th><th>Unit</th></tr><tr><td>Hematocrit [Volume Fraction] of Blood by Automated count</td><td>39.0</td><td>37 - 52</td><td></td><td>%</td></tr></table></div>"
        },
        "status": "final",
        "subject": {
          "reference": "urn:uuid:1e581e72-c723-4b29-a01e-82a12e7f8edd",
          "display": "Ignazio Comboni"
        },
        "effectiveDateTime": "2025-06-17T22:00:01Z"
      }
    },
    {
      "fullUrl": "urn:uuid:8994920a-122d-4375-aa9e-dc97aef3fe4d",
      "resource": {
        "resourceType": "Observation",
        "id": "8994920a-122d-4375-aa9e-dc97aef3fe4d",
        "meta": {
          "profile": [
            "http://hl7.eu/fhir/laboratory/StructureDefinition/Observation-resultslab-eu-lab"
          ]
        },
        "performer": [
          {
            "display": "The Central European Lab"
          }
        ],
        "category": [
          {
            "coding": [
              {
                "system": "http://terminology.hl7.org/CodeSystem/observation-category",
                "code": "laboratory"
              }
            ]
          }
        ],
        "code": {
          "coding": [
            {
              "code": "787-2",
              "system": "http://loinc.org",
              "display": "MCV [Entitic volume] by Automated count"
            }
          ],
          "text": "MCV [Entitic volume] by Automated count"
        },
        "valueQuantity": {
          "system": "http://unitsofmeasure.org",
          "value": 89,
          "unit": "fL",
          "code": "fL"
        },
        "referenceRange": [
          {
            "low": {
              "value": 82,
              "code": "fL",
              "system": "http://unitsofmeasure.org"
            }
          },
          {
            "high": {
              "value": 98,
              "code": "fL",
              "system": "http://unitsofmeasure.org"
            }
          }
        ],
        "text": {
          "status": "generated",
          "div": "<div xmlns=\"http://www.w3.org/1999/xhtml\"><table class=\"hl7__eu__lab__report\"><tr><th>Test</th><th>18-Jun-2025</th><th>Reference&#xA0;Range</th><th>Unit</th></tr><tr><td>MCV [Entitic volume] by Automated count</td><td>89.0</td><td>82 - 98</td><td></td><td>fL</td></tr></table></div>"
        },
        "status": "final",
        "subject": {
          "reference": "urn:uuid:1e581e72-c723-4b29-a01e-82a12e7f8edd",
          "display": "Ignazio Comboni"
        },
        "effectiveDateTime": "2025-06-17T22:00:01Z"
      }
    },
    {
      "fullUrl": "urn:uuid:2e9eb3a5-8a44-40d5-8102-24cd77751d6b",
      "resource": {
        "resourceType": "Observation",
        "id": "2e9eb3a5-8a44-40d5-8102-24cd77751d6b",
        "meta": {
          "profile": [
            "http://hl7.eu/fhir/laboratory/StructureDefinition/Observation-resultslab-eu-lab"
          ]
        },
        "performer": [
          {
            "display": "The Central European Lab"
          }
        ],
        "category": [
          {
            "coding": [
              {
                "system": "http://terminology.hl7.org/CodeSystem/observation-category",
                "code": "laboratory"
              }
            ]
          }
        ],
        "code": {
          "coding": [
            {
              "code": "785-6",
              "system": "http://loinc.org",
              "display": "MCH [Entitic mass] by Automated count"
            }
          ],
          "text": "MCH [Entitic mass] by Automated count"
        },
        "valueQuantity": {
          "system": "http://unitsofmeasure.org",
          "value": 30.3,
          "unit": "pg",
          "code": "pg"
        },
        "referenceRange": [
          {
            "low": {
              "value": 27,
              "code": "pg",
              "system": "http://unitsofmeasure.org"
            }
          },
          {
            "high": {
              "value": 33,
              "code": "pg",
              "system": "http://unitsofmeasure.org"
            }
          }
        ],
        "text": {
          "status": "generated",
          "div": "<div xmlns=\"http://www.w3.org/1999/xhtml\"><table class=\"hl7__eu__lab__report\"><tr><th>Test</th><th>18-Jun-2025</th><th>Reference&#xA0;Range</th><th>Unit</th></tr><tr><td>MCH [Entitic mass] by Automated count</td><td>30.3</td><td>27 - 33</td><td></td><td>pg</td></tr></table></div>"
        },
        "status": "final",
        "subject": {
          "reference": "urn:uuid:1e581e72-c723-4b29-a01e-82a12e7f8edd",
          "display": "Ignazio Comboni"
        },
        "effectiveDateTime": "2025-06-17T22:00:01Z"
      }
    },
    {
      "fullUrl": "urn:uuid:afddcee9-371e-49f5-ae8b-10e97d77af77",
      "resource": {
        "resourceType": "Observation",
        "id": "afddcee9-371e-49f5-ae8b-10e97d77af77",
        "meta": {
          "profile": [
            "http://hl7.eu/fhir/laboratory/StructureDefinition/Observation-resultslab-eu-lab"
          ]
        },
        "performer": [
          {
            "display": "The Central European Lab"
          }
        ],
        "category": [
          {
            "coding": [
              {
                "system": "http://terminology.hl7.org/CodeSystem/observation-category",
                "code": "laboratory"
              }
            ]
          }
        ],
        "code": {
          "coding": [
            {
              "code": "786-4",
              "system": "http://loinc.org",
              "display": "MCHC [Mass/volume] by Automated count"
            }
          ],
          "text": "MCHC [Mass/volume] by Automated count"
        },
        "valueQuantity": {
          "system": "http://unitsofmeasure.org",
          "value": 35.9,
          "unit": "g/dL",
          "code": "g/dL"
        },
        "referenceRange": [
          {
            "low": {
              "value": 32,
              "code": "g/dL",
              "system": "http://unitsofmeasure.org"
            }
          },
          {
            "high": {
              "value": 37,
              "code": "g/dL",
              "system": "http://unitsofmeasure.org"
            }
          }
        ],
        "text": {
          "status": "generated",
          "div": "<div xmlns=\"http://www.w3.org/1999/xhtml\"><table class=\"hl7__eu__lab__report\"><tr><th>Test</th><th>18-Jun-2025</th><th>Reference&#xA0;Range</th><th>Unit</th></tr><tr><td>MCHC [Mass/volume] by Automated count</td><td>35.9</td><td>32 - 37</td><td></td><td>g/dL</td></tr></table></div>"
        },
        "status": "final",
        "subject": {
          "reference": "urn:uuid:1e581e72-c723-4b29-a01e-82a12e7f8edd",
          "display": "Ignazio Comboni"
        },
        "effectiveDateTime": "2025-06-17T22:00:01Z"
      }
    },
    {
      "fullUrl": "urn:uuid:d8fe3f7b-66d5-43d5-935f-e5b90b18e148",
      "resource": {
        "resourceType": "Observation",
        "id": "d8fe3f7b-66d5-43d5-935f-e5b90b18e148",
        "meta": {
          "profile": [
            "http://hl7.eu/fhir/laboratory/StructureDefinition/Observation-resultslab-eu-lab"
          ]
        },
        "performer": [
          {
            "display": "The Central European Lab"
          }
        ],
        "category": [
          {
            "coding": [
              {
                "system": "http://terminology.hl7.org/CodeSystem/observation-category",
                "code": "laboratory"
              }
            ]
          }
        ],
        "code": {
          "coding": [
            {
              "code": "21000-5",
              "system": "http://loinc.org",
              "display": "Erythrocyte distribution width [Entitic volume] by Automated count"
            }
          ],
          "text": "Erythrocyte distribution width [Entitic volume] by Automated count"
        },
        "valueQuantity": {
          "system": "http://unitsofmeasure.org",
          "value": 41.5,
          "unit": "fL",
          "code": "fL"
        },
        "referenceRange": [
          {
            "low": {
              "value": 39,
              "code": "fL",
              "system": "http://unitsofmeasure.org"
            }
          },
          {
            "high": {
              "value": 55,
              "code": "fL",
              "system": "http://unitsofmeasure.org"
            }
          }
        ],
        "text": {
          "status": "generated",
          "div": "<div xmlns=\"http://www.w3.org/1999/xhtml\"><table class=\"hl7__eu__lab__report\"><tr><th>Test</th><th>18-Jun-2025</th><th>Reference&#xA0;Range</th><th>Unit</th></tr><tr><td>Erythrocyte distribution width [Entitic volume] by Automated count</td><td>41.5</td><td>39 - 55</td><td></td><td>fL</td></tr></table></div>"
        },
        "status": "final",
        "subject": {
          "reference": "urn:uuid:1e581e72-c723-4b29-a01e-82a12e7f8edd",
          "display": "Ignazio Comboni"
        },
        "effectiveDateTime": "2025-06-17T22:00:01Z"
      }
    },
    {
      "fullUrl": "urn:uuid:8a1f5dfe-c18d-4877-ad46-a9f83ad76c06",
      "resource": {
        "resourceType": "Observation",
        "id": "8a1f5dfe-c18d-4877-ad46-a9f83ad76c06",
        "meta": {
          "profile": [
            "http://hl7.eu/fhir/laboratory/StructureDefinition/Observation-resultslab-eu-lab"
          ]
        },
        "performer": [
          {
            "display": "The Central European Lab"
          }
        ],
        "category": [
          {
            "coding": [
              {
                "system": "http://terminology.hl7.org/CodeSystem/observation-category",
                "code": "laboratory"
              }
            ]
          }
        ],
        "code": {
          "coding": [
            {
              "code": "777-3",
              "system": "http://loinc.org",
              "display": "Platelets [#/volume] in Blood by Automated count"
            }
          ],
          "text": "Platelets [#/volume] in Blood by Automated count"
        },
        "valueQuantity": {
          "system": "http://unitsofmeasure.org",
          "value": 355.1,
          "unit": "10*3/uL",
          "code": "10*3/uL"
        },
        "referenceRange": [
          {
            "low": {
              "value": 150,
              "code": "10*3/uL",
              "system": "http://unitsofmeasure.org"
            }
          },
          {
            "high": {
              "value": 344,
              "code": "10*3/uL",
              "system": "http://unitsofmeasure.org"
            }
          }
        ],
        "interpretation": [
          {
            "coding": [
              {
                "code": "H",
                "system": "http://terminology.hl7.org/CodeSystem/v3-ObservationInterpretation",
                "display": "High"
              }
            ]
          }
        ],
        "text": {
          "status": "generated",
          "div": "<div xmlns=\"http://www.w3.org/1999/xhtml\"><table class=\"hl7__eu__lab__report\"><tr><th>Test</th><th>18-Jun-2025</th><th>Reference&#xA0;Range</th><th>Unit</th></tr><tr><td>Platelets [#/volume] in Blood by Automated count</td><td>355.1</td><td>150 - 344</td><td>H</td><td>10*3/uL</td></tr></table></div>"
        },
        "status": "final",
        "subject": {
          "reference": "urn:uuid:1e581e72-c723-4b29-a01e-82a12e7f8edd",
          "display": "Ignazio Comboni"
        },
        "effectiveDateTime": "2025-06-17T22:00:01Z"
      }
    },
    {
      "fullUrl": "urn:uuid:a24ce488-0083-44b2-82ce-9f8b9dfb107c",
      "resource": {
        "resourceType": "Observation",
        "id": "a24ce488-0083-44b2-82ce-9f8b9dfb107c",
        "meta": {
          "profile": [
            "http://hl7.eu/fhir/laboratory/StructureDefinition/Observation-resultslab-eu-lab"
          ]
        },
        "performer": [
          {
            "display": "The Central European Lab"
          }
        ],
        "category": [
          {
            "coding": [
              {
                "system": "http://terminology.hl7.org/CodeSystem/observation-category",
                "code": "laboratory"
              }
            ]
          }
        ],
        "code": {
          "coding": [
            {
              "code": "32207-3",
              "system": "http://loinc.org",
              "display": "Platelet distribution width [Entitic volume] in Blood by Automated count"
            }
          ],
          "text": "Platelet distribution width [Entitic volume] in Blood by Automated count"
        },
        "valueQuantity": {
          "system": "http://unitsofmeasure.org",
          "value": 455.5,
          "unit": "fL",
          "code": "fL"
        },
        "referenceRange": [
          {
            "low": {
              "value": 13.4,
              "code": "fL",
              "system": "http://unitsofmeasure.org"
            }
          },
          {
            "high": {
              "value": 17.4,
              "code": "fL",
              "system": "http://unitsofmeasure.org"
            }
          }
        ],
        "interpretation": [
          {
            "coding": [
              {
                "code": "H",
                "system": "http://terminology.hl7.org/CodeSystem/v3-ObservationInterpretation",
                "display": "High"
              }
            ]
          }
        ],
        "text": {
          "status": "generated",
          "div": "<div xmlns=\"http://www.w3.org/1999/xhtml\"><table class=\"hl7__eu__lab__report\"><tr><th>Test</th><th>18-Jun-2025</th><th>Reference&#xA0;Range</th><th>Unit</th></tr><tr><td>Platelet distribution width [Entitic volume] in Blood by Automated count</td><td>455.5</td><td>13.4 - 17.4</td><td>H</td><td>fL</td></tr></table></div>"
        },
        "status": "final",
        "subject": {
          "reference": "urn:uuid:1e581e72-c723-4b29-a01e-82a12e7f8edd",
          "display": "Ignazio Comboni"
        },
        "effectiveDateTime": "2025-06-17T22:00:01Z"
      }
    },
    {
      "fullUrl": "urn:uuid:0362d940-5d0e-4a76-bad7-7c8f22c55b80",
      "resource": {
        "resourceType": "Observation",
        "id": "0362d940-5d0e-4a76-bad7-7c8f22c55b80",
        "meta": {
          "profile": [
            "http://hl7.eu/fhir/laboratory/StructureDefinition/Observation-resultslab-eu-lab"
          ]
        },
        "performer": [
          {
            "display": "The Central European Lab"
          }
        ],
        "category": [
          {
            "coding": [
              {
                "system": "http://terminology.hl7.org/CodeSystem/observation-category",
                "code": "laboratory"
              }
            ]
          }
        ],
        "code": {
          "coding": [
            {
              "code": "32623-1",
              "system": "http://loinc.org",
              "display": "Platelet mean volume [Entitic volume] in Blood by Automated count"
            }
          ],
          "text": "Platelet mean volume [Entitic volume] in Blood by Automated count"
        },
        "valueQuantity": {
          "system": "http://unitsofmeasure.org",
          "value": 10.6,
          "unit": "fL",
          "code": "fL"
        },
        "referenceRange": [
          {
            "low": {
              "value": 7.2,
              "code": "fL",
              "system": "http://unitsofmeasure.org"
            }
          },
          {
            "high": {
              "value": 13.5,
              "code": "fL",
              "system": "http://unitsofmeasure.org"
            }
          }
        ],
        "text": {
          "status": "generated",
          "div": "<div xmlns=\"http://www.w3.org/1999/xhtml\"><table class=\"hl7__eu__lab__report\"><tr><th>Test</th><th>18-Jun-2025</th><th>Reference&#xA0;Range</th><th>Unit</th></tr><tr><td>Platelet mean volume [Entitic volume] in Blood by Automated count</td><td>10.6</td><td>7.2 - 13.5</td><td></td><td>fL</td></tr></table></div>"
        },
        "status": "final",
        "subject": {
          "reference": "urn:uuid:1e581e72-c723-4b29-a01e-82a12e7f8edd",
          "display": "Ignazio Comboni"
        },
        "effectiveDateTime": "2025-06-17T22:00:01Z"
      }
    },
    {
      "fullUrl": "urn:uuid:37e238be-e897-4cbc-bc34-601a7b117c88",
      "resource": {
        "resourceType": "DeviceUseStatement",
        "id": "37e238be-e897-4cbc-bc34-601a7b117c88",
        "meta": {
          "profile": [
            "http://hl7.eu/fhir/eps/StructureDefinition/deviceUseStatement-eu-eps"
          ]
        },
        "timingPeriod": {
          "start": "1974-05-26"
        },
        "text": {
          "status": "generated",
          "div": "<div xmlns=\"http://www.w3.org/1999/xhtml\"><table class=\"hl7__ips\"><tr><td>Home nebulizer (physical object)</td><td><span class=\"nb\">26-May-1974</span></td></tr></table></div>"
        },
        "status": "active",
        "device": {
          "reference": "urn:uuid:88ff2513-d5ed-4210-8a2e-54db2f45ce0b",
          "display": "Home nebulizer (physical object)"
        },
        "subject": {
          "reference": "urn:uuid:1e581e72-c723-4b29-a01e-82a12e7f8edd",
          "display": "Ignazio Comboni"
        }
      }
    },
    {
      "fullUrl": "urn:uuid:88ff2513-d5ed-4210-8a2e-54db2f45ce0b",
      "resource": {
        "resourceType": "Device",
        "id": "88ff2513-d5ed-4210-8a2e-54db2f45ce0b",
        "meta": {
          "profile": [
            "http://hl7.eu/fhir/eps/StructureDefinition/device-eu-eps"
          ]
        },
        "udiCarrier": [
          {
            "id": "(01)40049365098793(11)740505(17)990520(10)1018189209(21)805510856492839884"
          }
        ],
        "status": "active",
        "patient": {
          "reference": "urn:uuid:1e581e72-c723-4b29-a01e-82a12e7f8edd",
          "display": "Ignazio Comboni"
        },
        "type": {
          "coding": [
            {
              "code": "170615005",
              "system": "http://snomed.info/sct",
              "display": "Home nebulizer (physical object)"
            }
          ]
        }
      }
    },
    {
      "fullUrl": "urn:uuid:80afd79e-14af-4f14-900a-c932647c34e2",
      "resource": {
        "resourceType": "Device",
        "id": "80afd79e-14af-4f14-900a-c932647c34e2",
        "deviceName": [
          {
            "name": "SYNDERAI Synthetic Generator",
            "type": "manufacturer-name"
          }
        ],
        "version": [
          {
            "value": "5.0"
          }
        ],
        "text": {
          "status": "generated",
          "div": "<div xmlns=\"http://www.w3.org/1999/xhtml\">SYNDERAI Synthetic Generator v5.0</div>"
        },
        "status": "active",
        "distinctIdentifier": "synderai-generator-50",
        "manufacturer": "SYNDERAI Project"
      }
    },
    {
      "fullUrl": "urn:uuid:fdd5ebf4-e96e-4ec7-97d5-8807b08cd8e7",
      "resource": {
        "resourceType": "Provenance",
        "id": "fdd5ebf4-e96e-4ec7-97d5-8807b08cd8e7",
        "target": [
          {
            "reference": "Patient/1e581e72-c723-4b29-a01e-82a12e7f8edd"
          },
          {
            "reference": "Bundle/7c1ec098-4341-4c25-b4fb-2284c417f91b"
          },
          {
            "reference": "Composition/ab659fb2-7808-4640-a20d-af4de2a1f307"
          },
          {
            "reference": "PractitionerRole/251bf4e9-c508-4f69-b279-177aff3d8909"
          },
          {
            "reference": "Organization/4f2f45f6-699a-4e0a-a435-992a8e94bcdc"
          },
          {
            "reference": "Practitioner/e9ca33b8-3dbf-480a-ab63-63059cc555c5"
          }
        ],
        "activity": {
          "text": "Synthetic Example Data Generation"
        },
        "policy": [
          "https://synderai.net/synderai-synthetic-data-policy"
        ],
        "agent": [
          {
            "type": {
              "text": "author"
            },
            "who": {
              "reference": "Device/80afd79e-14af-4f14-900a-c932647c34e2"
            }
          }
        ],
        "reason": [
          {
            "text": "Interoperability Testing and Training (non-clinical use)"
          }
        ],
        "text": {
          "status": "generated",
          "div": "<div xmlns=\"http://www.w3.org/1999/xhtml\">Provenance for SYNDERAI Synthetic Example Data Resource</div>"
        },
        "recorded": "2025-06-17T22:00:01Z"
      }
    }
  ],
  "type": "document",
  "timestamp": "2025-06-17T22:00:01Z"
}
