{
  "resourceType": "Bundle",
  "id": "daa6c816-4b1f-43b4-b047-57b13e499e08",
  "meta": {
    "profile": [
      "http://hl7.eu/fhir/eps/StructureDefinition/bundle-eu-eps"
    ]
  },
  "identifier": {
    "assigner": {
      "display": "HL7 Europe"
    },
    "system": "urn:oid:2.16.840.1.113883.2.51.999",
    "value": "a669e533-19fb-4cd9-8926-2be7bc9aa545"
  },
  "entry": [
    {
      "fullUrl": "urn:uuid:cad7f172-9ce2-43eb-bf1e-f0edb370b4e3",
      "resource": {
        "resourceType": "Composition",
        "id": "cad7f172-9ce2-43eb-bf1e-f0edb370b4e3",
        "meta": {
          "security": [
            {
              "system": "http://terminology.hl7.org/CodeSystem/v3-ActReason",
              "code": "HTEST"
            },
            {
              "system": "http://terminology.hl7.org/CodeSystem/v3-ActReason",
              "code": "TRAIN"
            }
          ],
          "tag": [
            {
              "system": "https://synderai.net/fhir/CodeSystem/tags",
              "code": "synthetic",
              "display": "SYNDERAI Synthetic data"
            }
          ],
          "profile": [
            "http://hl7.eu/fhir/eps/StructureDefinition/composition-eu-eps"
          ]
        },
        "identifier": {
          "assigner": {
            "display": "HL7 Europe"
          },
          "system": "urn:oid:2.16.840.1.113883.2.51.999",
          "value": "5b9fef86-7b30-4033-879c-33dd7d280f1e"
        },
        "type": {
          "coding": [
            {
              "code": "60591-5",
              "system": "http://loinc.org",
              "display": "Patient summary Document"
            }
          ],
          "text": "Patient summary Document"
        },
        "author": [
          {
            "reference": "urn:uuid:89bc2394-d603-43f1-b1f8-dc6c75bb8c62"
          }
        ],
        "section": [
          {
            "text": {
              "status": "generated",
              "div": "<div xmlns=\"http://www.w3.org/1999/xhtml\"><table class=\"hl7__ips\"><tr><th>Condition</th><th>Onset Date</th><th>Status</th></tr><tr><td>Ischemic heart disease</td><td><span class=\"nb\">09-Mar-2008</span></td><td>active</td></tr><tr><td>Hyperlipidemia</td><td><span class=\"nb\">05-Jan-1996</span></td><td>active</td></tr><tr><td>Essential hypertension</td><td><span class=\"nb\">25-Nov-1988</span></td><td>active</td></tr><tr><td>Metabolic syndrome X</td><td><span class=\"nb\">25-Nov-1988</span></td><td>active</td></tr><tr><td>Anemia</td><td><span class=\"nb\">28-Sep-1984</span></td><td>active</td></tr><tr><td>Prediabetes</td><td><span class=\"nb\">04-Feb-1983</span></td><td>active</td></tr></table></div>"
            },
            "entry": [
              {
                "reference": "urn:uuid:13fce816-554e-4ea8-ac11-a31421e443ab"
              }
            ],
            "code": {
              "coding": [
                {
                  "system": "http://loinc.org",
                  "code": "11450-4",
                  "display": "Problem list - Reported"
                }
              ]
            },
            "title": "Problem list"
          },
          {
            "text": {
              "status": "generated",
              "div": "<div xmlns=\"http://www.w3.org/1999/xhtml\"><table class=\"hl7__ips\"><tr><td>No known medications</td></tr></table></div>"
            },
            "entry": [
              {
                "reference": "urn:uuid:847f80d3-c9ff-432d-a1a8-41d969bd6f42"
              }
            ],
            "code": {
              "coding": [
                {
                  "system": "http://loinc.org",
                  "code": "10160-0",
                  "display": "History of Medication use Narrative"
                }
              ]
            },
            "title": "Medication list"
          },
          {
            "text": {
              "status": "generated",
              "div": "<div xmlns=\"http://www.w3.org/1999/xhtml\"><table class=\"hl7__ips\"><tr><th>Vaccine</th><th>Date</th></tr><tr><td>Influenza virus antigen only vaccine product</td><td><span class=\"nb\">20-Jun-2025</span></td></tr><tr><td>SARS-CoV-2 mRNA vaccine</td><td><span class=\"nb\">09-Apr-2021</span></td></tr><tr><td>Clostridium tetani toxoid antigen adsorbed only vaccine product</td><td><span class=\"nb\">22-May-2020</span></td></tr></table></div>"
            },
            "entry": [
              {
                "reference": "urn:uuid:ead34096-31fe-4dd1-98d2-118fc51243d8"
              }
            ],
            "code": {
              "coding": [
                {
                  "system": "http://loinc.org",
                  "code": "11369-6",
                  "display": "History of Immunization note"
                }
              ]
            },
            "title": "Immunizations list"
          },
          {
            "text": {
              "status": "generated",
              "div": "<div xmlns=\"http://www.w3.org/1999/xhtml\"><table class=\"hl7__ips\"><tr><th>Procedure</th><th>Date</th><th>Reason</th></tr><tr><td>Depression screening</td><td><span class=\"nb\">22-Jan-2021</span></td><td>-</td></tr><tr><td>Assessment of health and social care needs</td><td><span class=\"nb\">22-Jan-2021</span></td><td>-</td></tr><tr><td>Screening for drug abuse</td><td><span class=\"nb\">22-Jan-2021</span></td><td>-</td></tr><tr><td>Assessment using Morse Fall Scale</td><td><span class=\"nb\">22-Jan-2021</span></td><td>-</td></tr><tr><td>Assessment of substance use</td><td><span class=\"nb\">22-Jan-2021</span></td><td>-</td></tr><tr><td>Depression screening using Patient Health Questionnaire Two-Item score (procedure)</td><td><span class=\"nb\">22-Jan-2021</span></td><td>-</td></tr><tr><td>Referral to home health care service</td><td><span class=\"nb\">22-Jul-2016</span></td><td>-</td></tr><tr><td>Pre-discharge assessment</td><td><span class=\"nb\">10-Jul-2016</span></td><td>-</td></tr><tr><td>Discharge from skilled nursing facility (procedure)</td><td><span class=\"nb\">10-Jul-2016</span></td><td>-</td></tr><tr><td>Professional / ancillary services care</td><td><span class=\"nb\">09-Jul-2016</span></td><td>-</td></tr><tr><td>Nursing care/supplementary surveillance</td><td><span class=\"nb\">09-Jul-2016</span></td><td>-</td></tr><tr><td>Care regimes assessment</td><td><span class=\"nb\">06-Jul-2016</span></td><td>-</td></tr><tr><td>History AND physical examination</td><td><span class=\"nb\">03-Jul-2016</span></td><td>-</td></tr><tr><td>Occupational therapy</td><td><span class=\"nb\">03-Jul-2016</span></td><td>-</td></tr><tr><td>Initial patient assessment</td><td><span class=\"nb\">03-Jul-2016</span></td><td>-</td></tr><tr><td>Development of individualized plan of care</td><td><span class=\"nb\">03-Jul-2016</span></td><td>-</td></tr></table></div>"
            },
            "entry": [
              {
                "reference": "urn:uuid:c3ff5eb0-e1b3-4b88-8888-40bec3cd2d84"
              }
            ],
            "code": {
              "coding": [
                {
                  "system": "http://loinc.org",
                  "code": "47519-4",
                  "display": "History of Procedures Document"
                }
              ]
            },
            "title": "Procedure History list"
          },
          {
            "text": {
              "status": "generated",
              "div": "<div xmlns=\"http://www.w3.org/1999/xhtml\"><table class=\"hl7__ips\"><tr><th>Allergy/Intolerance</th><th>Onset Date</th><th>Status</th><th>Type</th><th>Reaction</th></tr><tr><td></td><td>?</td><td>active</td><td>?</td><td></td></tr></table></div>"
            },
            "entry": [
              {
                "reference": "urn:uuid:40899001-ede1-48c7-9f18-e4b27e9c5597"
              }
            ],
            "code": {
              "coding": [
                {
                  "system": "http://loinc.org",
                  "code": "48765-2",
                  "display": "Allergies and adverse reactions Document"
                }
              ]
            },
            "title": "Allergies and Intolerances"
          },
          {
            "text": {
              "status": "generated",
              "div": "<div xmlns=\"http://www.w3.org/1999/xhtml\"><table class=\"hl7__ips\"><tr><th>Active Planned Care / Goals</th><th>Start Date</th><th>Reason</th></tr><tr><td>Hyperlipidemia clinical management plan</td><td><span class=\"nb\">26-Jan-1996</span></td><td>Hyperlipidemia</td></tr><tr><td><ul><li>Achieve and maintain LDL cholesterol below 70 mg/dL</li><li>Achieve and maintain total cholesterol below 150 mg/dL</li><li>Maintain HDL cholesterol above 40 mg/dL</li><li>Achieve and maintain triglycerides below 150 mg/dL</li></ul></td><td></td><td></td></tr><tr><td>Lifestyle education regarding hypertension</td><td><span class=\"nb\">25-Nov-1988</span></td><td>Essential hypertension (disorder)</td></tr><tr><td><ul><li>Achieve and maintain systolic blood pressure below 130 mm[Hg] through lifestyle modifications.</li><li>Achieve and maintain diastolic blood pressure below 80 mm[Hg] through lifestyle modifications.</li><li>Reduce daily sodium intake to less than 2.3 g per day as part of hypertension management.</li><li>Engage in at least 150 minutes of moderate-intensity aerobic physical activity per week to support blood pressure control.</li><li>Achieve a 5% reduction in body weight to support blood pressure control.</li></ul></td><td></td><td></td></tr><tr><td>Diabetes self management plan</td><td><span class=\"nb\">04-Feb-1983</span></td><td>Prediabetes</td></tr><tr><td><ul><li>Patient will verbalize understanding of prediabetes, healthy eating, physical activity, and blood glucose monitoring as part of diabetes self-management.</li><li>Maintain hemoglobin A1c below 6.5% to prevent progression to diabetes.</li><li>Achieve and maintain at least 5% weight loss from baseline to reduce risk of diabetes progression.</li><li>Engage in at least 150 minutes per week of moderate-intensity physical activity.</li></ul></td><td></td><td></td></tr><tr><th>Immunization Recommendation</th><th>Due Date</th><th>Reason</th></tr><tr><td>Vaccine product containing only Influenza virus antigen (medicinal product)</td><td><span class=\"nb\">01-Oct-2025</span></td><td>Annual seasonal influenza vaccination</td></tr></table></div>"
            },
            "title": "Care Plan",
            "code": {
              "coding": [
                {
                  "code": "18776-5",
                  "system": "http://loinc.org",
                  "display": "Plan of care note"
                }
              ]
            }
          },
          {
            "text": {
              "status": "generated",
              "div": "<div xmlns=\"http://www.w3.org/1999/xhtml\"><table class=\"hl7__ips\"><tr><th>Vital Signs</th><th>2025-06-20</th><th>2024-06-14</th></tr><tr><td>Body Height</td><td>185.6 cm</td><td>185.6 cm</td></tr><tr><td>Pain severity - 0-10 verbal numeric rating [Score] - Reported</td><td>2 {score}</td><td>3 {score}</td></tr><tr><td>Body Weight</td><td>104.2 kg</td><td>104.2 kg</td></tr><tr><td>Body mass index (BMI) [Ratio]</td><td>30.3 kg/m2</td><td>30.3 kg/m2</td></tr><tr><td>Diastolic Blood Pressure</td><td>65 mm[Hg]</td><td>62 mm[Hg]</td></tr><tr><td>Systolic Blood Pressure</td><td>107 mm[Hg]</td><td>102 mm[Hg]</td></tr><tr><td>Heart rate</td><td>60 /min</td><td>66 /min</td></tr><tr><td>Respiratory rate</td><td>13 /min</td><td>15 /min</td></tr></table></div>"
            },
            "entry": [
              {
                "reference": "urn:uuid:3aecba5a-1b88-4950-80de-59070e04f3c5"
              }
            ],
            "code": {
              "coding": [
                {
                  "system": "http://loinc.org",
                  "code": "8716-3",
                  "display": "Vital signs note"
                }
              ]
            },
            "title": "Vital Signs"
          },
          {
            "text": {
              "status": "generated",
              "div": "<div xmlns=\"http://www.w3.org/1999/xhtml\"><table class=\"hl7__ips\"><table class=\"hl7__ips\"><thead><tr><th>Recent Lab Observations</th><th>21-JUN-2025</th><th>Reference&#xA0;Range</th><th>Unit</th></tr></thead><tbody><tr><td>Glucose [Mass/volume] in Blood</td><td>99.0</td><td>70 - 140</td><td>mg/dL</td></tr><tr><td>Urea nitrogen [Mass/volume] in Blood</td><td>16.8</td><td>7 - 50</td><td>mg/dL</td></tr><tr><td>Creatinine [Mass/volume] in Blood</td><td><strong>2.6 H</strong></td><td>0.9 - 1.3</td><td>mg/dL</td></tr><tr><td>Calcium [Mass/volume] in Blood</td><td>10.0</td><td>8.5 - 10.5</td><td>mg/dL</td></tr><tr><td>Sodium [Moles/volume] in Blood</td><td>139.1</td><td>135 - 145</td><td>mmol/L</td></tr><tr><td>Potassium [Moles/volume] in Blood</td><td>4.0</td><td>3.5 - 5.3</td><td>mmol/L</td></tr><tr><td>Chloride [Moles/volume] in Blood</td><td>104.9</td><td>98 - 107</td><td>mmol/L</td></tr><tr><td>Carbon dioxide, total [Moles/volume] in Blood</td><td>27.1</td><td>22 - 32</td><td>mmol/L</td></tr><tr><td>Protein [Mass/volume] in Serum or Plasma</td><td>7.4</td><td>6.6 - 8.3</td><td>g/dL</td></tr><tr><td>Albumin [Mass/volume] in Serum or Plasma</td><td>4.6</td><td>3.5 - 5.5</td><td>g/dL</td></tr><tr><td>Globulin [Mass/volume] in Serum by calculation</td><td>2.5</td><td>2 - 3.5</td><td>g/L</td></tr><tr><td>Bilirubin.total [Mass/volume] in Serum or Plasma</td><td>1.2</td><td>0.3 - 1.2</td><td>mg/dL</td></tr><tr><td>Alkaline phosphatase [Enzymatic activity/volume] in Serum or Plasma</td><td>81.4</td><td>53 - 130</td><td>U/L</td></tr><tr><td>Alanine aminotransferase [Enzymatic activity/volume] in Serum or Plasma</td><td>59.5</td><td>7 - 63</td><td>U/L</td></tr><tr><td>Aspartate aminotransferase [Enzymatic activity/volume] in Serum or Plasma</td><td>18.3</td><td>10 - 40</td><td>U/L</td></tr><tr><td>Cholesterol [Mass/volume] in Serum or Plasma</td><td><strong>200.7 H</strong></td><td>125 - 200</td><td>mg/dL</td></tr><tr><td>Triglyceride [Mass/volume] in Serum or Plasma</td><td>196.5</td><td>10 - 200</td><td>mg/dL</td></tr><tr><td>Cholesterol in LDL [Mass/volume] in Serum or Plasma by Direct assay</td><td>113.9</td><td>0 - 130</td><td>mg/dL</td></tr><tr><td>Cholesterol in HDL [Mass/volume] in Serum or Plasma</td><td>56.7</td><td>40 - 100</td><td>mg/dL</td></tr></tbody></table></table></div>"
            },
            "title": "Relevant diagnostic tests/laboratory data",
            "code": {
              "coding": [
                {
                  "code": "30954-2",
                  "system": "http://loinc.org",
                  "display": "Relevant diagnostic tests/laboratory data note"
                }
              ]
            }
          },
          {
            "text": {
              "status": "generated",
              "div": "<div xmlns=\"http://www.w3.org/1999/xhtml\"><table class=\"hl7__ips\"><tr><th>Device</th><th>Date (since)</th></tr><tr><td>Blood glucose meter (physical object)</td><td><span class=\"nb\">04-Feb-1983</span></td></tr></table></div>"
            },
            "entry": [
              {
                "reference": "urn:uuid:7a6a03a9-7e94-4446-99b4-9c9513200dea"
              }
            ],
            "code": {
              "coding": [
                {
                  "system": "http://loinc.org",
                  "code": "46264-8",
                  "display": "History of medical device use"
                }
              ]
            },
            "title": "Device Use"
          }
        ],
        "title": "European Patient Summary",
        "status": "final",
        "subject": {
          "reference": "urn:uuid:4fcdf178-f14d-4a34-8a9f-bbd2cdd4603c",
          "display": "Jacob Dörr"
        },
        "custodian": {
          "reference": "urn:uuid:4c2d2ecf-72ab-4809-a2f5-127c1a0ff63c"
        },
        "date": "2025-06-21",
        "confidentiality": "N"
      }
    },
    {
      "fullUrl": "urn:uuid:4fcdf178-f14d-4a34-8a9f-bbd2cdd4603c",
      "resource": {
        "resourceType": "Patient",
        "id": "4fcdf178-f14d-4a34-8a9f-bbd2cdd4603c",
        "meta": {
          "security": [
            {
              "system": "http://terminology.hl7.org/CodeSystem/v3-ActReason",
              "code": "HTEST"
            },
            {
              "system": "http://terminology.hl7.org/CodeSystem/v3-ActReason",
              "code": "TRAIN"
            }
          ],
          "tag": [
            {
              "system": "https://synderai.net/fhir/CodeSystem/tags",
              "code": "synthetic",
              "display": "SYNDERAI Synthetic data"
            }
          ],
          "profile": [
            "http://hl7.eu/fhir/eps/StructureDefinition/patient-eu-eps"
          ]
        },
        "identifier": [
          {
            "type": {
              "coding": [
                {
                  "code": "PT",
                  "system": "http://terminology.hl7.org/CodeSystem/v2-0203"
                }
              ]
            },
            "system": "http://ec.europa.eu/identifier/eci",
            "value": "1494-404003-0"
          },
          {
            "type": {
              "coding": [
                {
                  "code": "MR",
                  "system": "http://terminology.hl7.org/CodeSystem/v2-0203"
                }
              ]
            },
            "system": "http://local.setting.eu/identifier",
            "value": "6468f110-6996-cb96-7b69-25de9676bacd"
          }
        ],
        "name": [
          {
            "given": [
              "Jacob"
            ],
            "family": "Dörr",
            "text": "Jacob Dörr"
          }
        ],
        "address": [
          {
            "line": [
              "Meryem-Hein-Weg 70-53"
            ],
            "use": "home",
            "type": "physical",
            "postalCode": "76646",
            "city": "Bruchsal",
            "country": "Germany"
          }
        ],
        "telecom": [
          {
            "system": "phone",
            "value": "07019640019"
          }
        ],
        "extension": [
          {
            "url": "http://hl7.org/fhir/StructureDefinition/patient-nationality",
            "valueCodeableConcept": {
              "coding": [
                {
                  "code": "DE",
                  "system": "http://hl7.org/fhir/ValueSet/country"
                }
              ]
            }
          }
        ],
        "text": {
          "status": "generated",
          "div": "<div xmlns=\"http://www.w3.org/1999/xhtml\"><table class=\"hl7__ips\"><tr><td>Jacob Dörr</td><td>male</td><td>10-Jun-1953</td></tr></table></div>"
        },
        "gender": "male",
        "birthDate": "1953-06-10"
      }
    },
    {
      "fullUrl": "urn:uuid:89bc2394-d603-43f1-b1f8-dc6c75bb8c62",
      "resource": {
        "resourceType": "PractitionerRole",
        "id": "89bc2394-d603-43f1-b1f8-dc6c75bb8c62",
        "meta": {
          "profile": [
            "http://hl7.eu/fhir/base/StructureDefinition/practitionerRole-eu"
          ]
        },
        "text": {
          "status": "generated",
          "div": "<div xmlns=\"http://www.w3.org/1999/xhtml\"><table class=\"hl7__ips\">Provider Role Id 89bc2394-d603-43f1-b1f8-dc6c75bb8c62</table></div>"
        },
        "practitioner": {
          "reference": "urn:uuid:fe6745fe-ee51-4b95-85b5-f11515db4903"
        },
        "organization": {
          "reference": "urn:uuid:4c2d2ecf-72ab-4809-a2f5-127c1a0ff63c"
        }
      }
    },
    {
      "fullUrl": "urn:uuid:4c2d2ecf-72ab-4809-a2f5-127c1a0ff63c",
      "resource": {
        "resourceType": "Organization",
        "id": "4c2d2ecf-72ab-4809-a2f5-127c1a0ff63c",
        "meta": {
          "profile": [
            "http://hl7.eu/fhir/base/StructureDefinition/organization-eu"
          ]
        },
        "identifier": [
          {
            "assigner": {
              "display": "HL7 Europe"
            },
            "system": "urn:oid:2.16.840.1.113883.2.51.999",
            "value": "1a8aaf75-093c-4148-9b04-615c43d79acc"
          }
        ],
        "address": [
          {
            "line": [
              "Gutleutstraße 1-14"
            ],
            "city": "Bruchsal",
            "postalCode": "76646",
            "country": "Germany"
          }
        ],
        "text": {
          "status": "generated",
          "div": "<div xmlns=\"http://www.w3.org/1999/xhtml\"><table class=\"hl7__ips\">Fürst-Stirum-Klinik</table></div>"
        },
        "name": "Fürst-Stirum-Klinik"
      }
    },
    {
      "fullUrl": "urn:uuid:fe6745fe-ee51-4b95-85b5-f11515db4903",
      "resource": {
        "resourceType": "Practitioner",
        "id": "fe6745fe-ee51-4b95-85b5-f11515db4903",
        "meta": {
          "profile": [
            "http://hl7.eu/fhir/base/StructureDefinition/practitioner-eu"
          ]
        },
        "name": [
          {
            "prefix": [
              "Dr."
            ],
            "given": [
              "Hel"
            ],
            "family": "Ping"
          }
        ],
        "text": {
          "status": "generated",
          "div": "<div xmlns=\"http://www.w3.org/1999/xhtml\"><table class=\"hl7__ips\">Dr. Hel Ping</table></div>"
        }
      }
    },
    {
      "fullUrl": "urn:uuid:13fce816-554e-4ea8-ac11-a31421e443ab",
      "resource": {
        "resourceType": "Condition",
        "id": "13fce816-554e-4ea8-ac11-a31421e443ab",
        "meta": {
          "profile": [
            "http://hl7.org/fhir/uv/ips/StructureDefinition/Condition-uv-ips"
          ]
        },
        "category": [
          {
            "coding": [
              {
                "code": "problem-list-item",
                "system": "http://terminology.hl7.org/CodeSystem/condition-category",
                "display": "Problem List Item"
              }
            ]
          }
        ],
        "code": {
          "coding": [
            {
              "code": "414545008",
              "system": "http://snomed.info/sct",
              "display": "Ischemic heart disease (disorder)"
            }
          ],
          "text": "Ischemic heart disease"
        },
        "text": {
          "status": "generated",
          "div": "<div xmlns=\"http://www.w3.org/1999/xhtml\"><table class=\"hl7__ips\"><tr><td>Ischemic heart disease</td><td><span class=\"nb\">09-Mar-2008</span></td><td>active</td></tr></table></div>"
        },
        "onsetDateTime": "2008-03-09",
        "subject": {
          "reference": "urn:uuid:4fcdf178-f14d-4a34-8a9f-bbd2cdd4603c",
          "display": "Jacob Dörr"
        },
        "asserter": {
          "reference": "urn:uuid:89bc2394-d603-43f1-b1f8-dc6c75bb8c62",
          "display": "Fürst-Stirum-Klinik"
        }
      }
    },
    {
      "fullUrl": "urn:uuid:5f634d8e-4ea2-4177-bc8c-4284ce68d8ce",
      "resource": {
        "resourceType": "Condition",
        "id": "5f634d8e-4ea2-4177-bc8c-4284ce68d8ce",
        "meta": {
          "profile": [
            "http://hl7.org/fhir/uv/ips/StructureDefinition/Condition-uv-ips"
          ]
        },
        "category": [
          {
            "coding": [
              {
                "code": "problem-list-item",
                "system": "http://terminology.hl7.org/CodeSystem/condition-category",
                "display": "Problem List Item"
              }
            ]
          }
        ],
        "code": {
          "coding": [
            {
              "code": "55822004",
              "system": "http://snomed.info/sct",
              "display": "Hyperlipidemia (disorder)"
            }
          ],
          "text": "Hyperlipidemia"
        },
        "text": {
          "status": "generated",
          "div": "<div xmlns=\"http://www.w3.org/1999/xhtml\"><table class=\"hl7__ips\"><tr><td>Hyperlipidemia</td><td><span class=\"nb\">05-Jan-1996</span></td><td>active</td></tr></table></div>"
        },
        "onsetDateTime": "1996-01-05",
        "subject": {
          "reference": "urn:uuid:4fcdf178-f14d-4a34-8a9f-bbd2cdd4603c",
          "display": "Jacob Dörr"
        },
        "asserter": {
          "reference": "urn:uuid:89bc2394-d603-43f1-b1f8-dc6c75bb8c62",
          "display": "Fürst-Stirum-Klinik"
        }
      }
    },
    {
      "fullUrl": "urn:uuid:161743e8-3211-4630-95e4-6b77642dc337",
      "resource": {
        "resourceType": "Condition",
        "id": "161743e8-3211-4630-95e4-6b77642dc337",
        "meta": {
          "profile": [
            "http://hl7.org/fhir/uv/ips/StructureDefinition/Condition-uv-ips"
          ]
        },
        "category": [
          {
            "coding": [
              {
                "code": "problem-list-item",
                "system": "http://terminology.hl7.org/CodeSystem/condition-category",
                "display": "Problem List Item"
              }
            ]
          }
        ],
        "code": {
          "coding": [
            {
              "code": "59621000",
              "system": "http://snomed.info/sct",
              "display": "Essential hypertension (disorder)"
            }
          ],
          "text": "Essential hypertension"
        },
        "text": {
          "status": "generated",
          "div": "<div xmlns=\"http://www.w3.org/1999/xhtml\"><table class=\"hl7__ips\"><tr><td>Essential hypertension</td><td><span class=\"nb\">25-Nov-1988</span></td><td>active</td></tr></table></div>"
        },
        "onsetDateTime": "1988-11-25",
        "subject": {
          "reference": "urn:uuid:4fcdf178-f14d-4a34-8a9f-bbd2cdd4603c",
          "display": "Jacob Dörr"
        },
        "asserter": {
          "reference": "urn:uuid:89bc2394-d603-43f1-b1f8-dc6c75bb8c62",
          "display": "Fürst-Stirum-Klinik"
        }
      }
    },
    {
      "fullUrl": "urn:uuid:4bb7c26a-5473-4392-8517-fced55bb0c5c",
      "resource": {
        "resourceType": "Condition",
        "id": "4bb7c26a-5473-4392-8517-fced55bb0c5c",
        "meta": {
          "profile": [
            "http://hl7.org/fhir/uv/ips/StructureDefinition/Condition-uv-ips"
          ]
        },
        "category": [
          {
            "coding": [
              {
                "code": "problem-list-item",
                "system": "http://terminology.hl7.org/CodeSystem/condition-category",
                "display": "Problem List Item"
              }
            ]
          }
        ],
        "code": {
          "coding": [
            {
              "code": "237602007",
              "system": "http://snomed.info/sct",
              "display": "Metabolic syndrome X (disorder)"
            }
          ],
          "text": "Metabolic syndrome X"
        },
        "text": {
          "status": "generated",
          "div": "<div xmlns=\"http://www.w3.org/1999/xhtml\"><table class=\"hl7__ips\"><tr><td>Metabolic syndrome X</td><td><span class=\"nb\">25-Nov-1988</span></td><td>active</td></tr></table></div>"
        },
        "onsetDateTime": "1988-11-25",
        "subject": {
          "reference": "urn:uuid:4fcdf178-f14d-4a34-8a9f-bbd2cdd4603c",
          "display": "Jacob Dörr"
        },
        "asserter": {
          "reference": "urn:uuid:89bc2394-d603-43f1-b1f8-dc6c75bb8c62",
          "display": "Fürst-Stirum-Klinik"
        }
      }
    },
    {
      "fullUrl": "urn:uuid:2704be57-f709-47c7-9dd3-56ff315516a2",
      "resource": {
        "resourceType": "Condition",
        "id": "2704be57-f709-47c7-9dd3-56ff315516a2",
        "meta": {
          "profile": [
            "http://hl7.org/fhir/uv/ips/StructureDefinition/Condition-uv-ips"
          ]
        },
        "category": [
          {
            "coding": [
              {
                "code": "problem-list-item",
                "system": "http://terminology.hl7.org/CodeSystem/condition-category",
                "display": "Problem List Item"
              }
            ]
          }
        ],
        "code": {
          "coding": [
            {
              "code": "271737000",
              "system": "http://snomed.info/sct",
              "display": "Anemia (disorder)"
            }
          ],
          "text": "Anemia"
        },
        "text": {
          "status": "generated",
          "div": "<div xmlns=\"http://www.w3.org/1999/xhtml\"><table class=\"hl7__ips\"><tr><td>Anemia</td><td><span class=\"nb\">28-Sep-1984</span></td><td>active</td></tr></table></div>"
        },
        "onsetDateTime": "1984-09-28",
        "subject": {
          "reference": "urn:uuid:4fcdf178-f14d-4a34-8a9f-bbd2cdd4603c",
          "display": "Jacob Dörr"
        },
        "asserter": {
          "reference": "urn:uuid:89bc2394-d603-43f1-b1f8-dc6c75bb8c62",
          "display": "Fürst-Stirum-Klinik"
        }
      }
    },
    {
      "fullUrl": "urn:uuid:2808a56f-2f69-405d-ae31-91096de25b9b",
      "resource": {
        "resourceType": "Condition",
        "id": "2808a56f-2f69-405d-ae31-91096de25b9b",
        "meta": {
          "profile": [
            "http://hl7.org/fhir/uv/ips/StructureDefinition/Condition-uv-ips"
          ]
        },
        "category": [
          {
            "coding": [
              {
                "code": "problem-list-item",
                "system": "http://terminology.hl7.org/CodeSystem/condition-category",
                "display": "Problem List Item"
              }
            ]
          }
        ],
        "code": {
          "coding": [
            {
              "code": "15777000",
              "system": "http://snomed.info/sct",
              "display": "Prediabetes (disorder)"
            }
          ],
          "text": "Prediabetes"
        },
        "text": {
          "status": "generated",
          "div": "<div xmlns=\"http://www.w3.org/1999/xhtml\"><table class=\"hl7__ips\"><tr><td>Prediabetes</td><td><span class=\"nb\">04-Feb-1983</span></td><td>active</td></tr></table></div>"
        },
        "onsetDateTime": "1983-02-04",
        "subject": {
          "reference": "urn:uuid:4fcdf178-f14d-4a34-8a9f-bbd2cdd4603c",
          "display": "Jacob Dörr"
        },
        "asserter": {
          "reference": "urn:uuid:89bc2394-d603-43f1-b1f8-dc6c75bb8c62",
          "display": "Fürst-Stirum-Klinik"
        }
      }
    },
    {
      "fullUrl": "urn:uuid:56c83c80-44c7-450e-a531-579a8fe91ef4",
      "resource": {
        "resourceType": "Condition",
        "id": "56c83c80-44c7-450e-a531-579a8fe91ef4",
        "meta": {
          "profile": [
            "http://hl7.org/fhir/uv/ips/StructureDefinition/Condition-uv-ips"
          ]
        },
        "category": [
          {
            "coding": [
              {
                "code": "problem-list-item",
                "system": "http://terminology.hl7.org/CodeSystem/condition-category",
                "display": "Problem List Item"
              }
            ]
          }
        ],
        "code": {
          "coding": [
            {
              "code": "10509002",
              "system": "http://snomed.info/sct",
              "display": "Acute bronchitis (disorder)"
            }
          ],
          "text": "Acute bronchitis"
        },
        "text": {
          "status": "generated",
          "div": "<div xmlns=\"http://www.w3.org/1999/xhtml\"><table class=\"hl7__ips\"><tr><td><span class=\"grayedout\">Acute bronchitis</span></td><td><span class=\"nb\">14-Jan-2021 - 23-Jan-2021</span></td><td><span class=\"grayedout\">inactive</span></td></tr></table></div>"
        },
        "onsetDateTime": "2021-01-14",
        "abatementDateTime": "2021-01-23",
        "subject": {
          "reference": "urn:uuid:4fcdf178-f14d-4a34-8a9f-bbd2cdd4603c",
          "display": "Jacob Dörr"
        },
        "asserter": {
          "reference": "urn:uuid:89bc2394-d603-43f1-b1f8-dc6c75bb8c62",
          "display": "Fürst-Stirum-Klinik"
        }
      }
    },
    {
      "fullUrl": "urn:uuid:b98ce60f-9e52-4bde-a762-1da4a9d65926",
      "resource": {
        "resourceType": "Condition",
        "id": "b98ce60f-9e52-4bde-a762-1da4a9d65926",
        "meta": {
          "profile": [
            "http://hl7.org/fhir/uv/ips/StructureDefinition/Condition-uv-ips"
          ]
        },
        "category": [
          {
            "coding": [
              {
                "code": "problem-list-item",
                "system": "http://terminology.hl7.org/CodeSystem/condition-category",
                "display": "Problem List Item"
              }
            ]
          }
        ],
        "code": {
          "coding": [
            {
              "code": "195662009",
              "system": "http://snomed.info/sct",
              "display": "Acute viral pharyngitis (disorder)"
            }
          ],
          "text": "Acute viral pharyngitis"
        },
        "text": {
          "status": "generated",
          "div": "<div xmlns=\"http://www.w3.org/1999/xhtml\"><table class=\"hl7__ips\"><tr><td><span class=\"grayedout\">Acute viral pharyngitis</span></td><td><span class=\"nb\">11-Sep-2017 - 19-Sep-2017</span></td><td><span class=\"grayedout\">inactive</span></td></tr></table></div>"
        },
        "onsetDateTime": "2017-09-11",
        "abatementDateTime": "2017-09-19",
        "subject": {
          "reference": "urn:uuid:4fcdf178-f14d-4a34-8a9f-bbd2cdd4603c",
          "display": "Jacob Dörr"
        },
        "asserter": {
          "reference": "urn:uuid:89bc2394-d603-43f1-b1f8-dc6c75bb8c62",
          "display": "Fürst-Stirum-Klinik"
        }
      }
    },
    {
      "fullUrl": "urn:uuid:9b5a5257-1e86-4373-9df2-24174f4b4acd",
      "resource": {
        "resourceType": "Condition",
        "id": "9b5a5257-1e86-4373-9df2-24174f4b4acd",
        "meta": {
          "profile": [
            "http://hl7.org/fhir/uv/ips/StructureDefinition/Condition-uv-ips"
          ]
        },
        "category": [
          {
            "coding": [
              {
                "code": "problem-list-item",
                "system": "http://terminology.hl7.org/CodeSystem/condition-category",
                "display": "Problem List Item"
              }
            ]
          }
        ],
        "code": {
          "coding": [
            {
              "code": "403191005",
              "system": "http://snomed.info/sct",
              "display": "Partial thickness burn (disorder)"
            }
          ],
          "text": "Partial thickness burn"
        },
        "text": {
          "status": "generated",
          "div": "<div xmlns=\"http://www.w3.org/1999/xhtml\"><table class=\"hl7__ips\"><tr><td><span class=\"grayedout\">Partial thickness burn</span></td><td><span class=\"nb\">03-Jul-2016 - 01-Aug-2016</span></td><td><span class=\"grayedout\">inactive</span></td></tr></table></div>"
        },
        "onsetDateTime": "2016-07-03",
        "abatementDateTime": "2016-08-01",
        "subject": {
          "reference": "urn:uuid:4fcdf178-f14d-4a34-8a9f-bbd2cdd4603c",
          "display": "Jacob Dörr"
        },
        "asserter": {
          "reference": "urn:uuid:89bc2394-d603-43f1-b1f8-dc6c75bb8c62",
          "display": "Fürst-Stirum-Klinik"
        }
      }
    },
    {
      "fullUrl": "urn:uuid:847f80d3-c9ff-432d-a1a8-41d969bd6f42",
      "resource": {
        "resourceType": "MedicationStatement",
        "id": "847f80d3-c9ff-432d-a1a8-41d969bd6f42",
        "meta": {
          "profile": [
            "http://hl7.eu/fhir/eps/StructureDefinition/MedicationStatement-eu-eps"
          ]
        },
        "effectivePeriod": {
          "extension": [
            {
              "url": "http://hl7.org/fhir/StructureDefinition/data-absent-reason",
              "valueCode": "unknown"
            }
          ]
        },
        "status": "active",
        "medicationCodeableConcept": {
          "coding": [
            {
              "code": "787481004",
              "system": "http://snomed.info/sct",
              "display": "No known medications (situation)"
            }
          ]
        },
        "subject": {
          "reference": "urn:uuid:4fcdf178-f14d-4a34-8a9f-bbd2cdd4603c",
          "display": "Jacob Dörr"
        }
      }
    },
    {
      "fullUrl": "urn:uuid:ead34096-31fe-4dd1-98d2-118fc51243d8",
      "resource": {
        "resourceType": "Immunization",
        "id": "ead34096-31fe-4dd1-98d2-118fc51243d8",
        "meta": {
          "profile": [
            "http://hl7.org/fhir/uv/ips/StructureDefinition/Immunization-uv-ips"
          ]
        },
        "vaccineCode": {
          "coding": [
            {
              "code": "1181000221105",
              "system": "http://snomed.info/sct",
              "display": "Vaccine product containing Influenza virus antigen"
            },
            {
              "code": "J07BB02",
              "system": "http://www.whocc.no/atc",
              "display": "Influenza, inactivated, split virus"
            }
          ],
          "text": "Influenza virus antigen only vaccine product"
        },
        "site": {
          "coding": [
            {
              "code": "244979005",
              "system": "http://snomed.info/sct",
              "display": "Entire muscle of upper arm"
            }
          ],
          "text": "Entire muscle of upper arm"
        },
        "route": {
          "coding": [
            {
              "code": "78421000",
              "system": "http://snomed.info/sct",
              "display": "Intramuscular route"
            }
          ],
          "text": "Intramuscular route"
        },
        "text": {
          "status": "generated",
          "div": "<div xmlns=\"http://www.w3.org/1999/xhtml\"><table class=\"hl7__ips\"><tr><td>Influenza virus antigen only vaccine product</td><td><span class=\"nb\">20-Jun-2025</span></td></tr></table></div>"
        },
        "status": "completed",
        "patient": {
          "reference": "urn:uuid:4fcdf178-f14d-4a34-8a9f-bbd2cdd4603c",
          "display": "Jacob Dörr"
        },
        "occurrenceDateTime": "2025-06-20",
        "lotNumber": "QE-MtdnDV7vv",
        "expirationDate": "2026-01-14"
      }
    },
    {
      "fullUrl": "urn:uuid:2a32f0f5-2c4d-485a-9de9-2ccc9d600ad2",
      "resource": {
        "resourceType": "Immunization",
        "id": "2a32f0f5-2c4d-485a-9de9-2ccc9d600ad2",
        "meta": {
          "profile": [
            "http://hl7.org/fhir/uv/ips/StructureDefinition/Immunization-uv-ips"
          ]
        },
        "vaccineCode": {
          "coding": [
            {
              "code": "1119349007",
              "system": "http://snomed.info/sct",
              "display": "Vaccine product containing SARS-CoV-2 mRNA"
            },
            {
              "code": "J07BX03",
              "system": "http://www.whocc.no/atc",
              "display": "COVID-19 mRNA vaccines"
            }
          ],
          "text": "SARS-CoV-2 mRNA vaccine"
        },
        "site": {
          "coding": [
            {
              "code": "244979005",
              "system": "http://snomed.info/sct",
              "display": "Entire muscle of upper arm"
            }
          ],
          "text": "Entire muscle of upper arm"
        },
        "route": {
          "coding": [
            {
              "code": "78421000",
              "system": "http://snomed.info/sct",
              "display": "Intramuscular route"
            }
          ],
          "text": "Intramuscular route"
        },
        "text": {
          "status": "generated",
          "div": "<div xmlns=\"http://www.w3.org/1999/xhtml\"><table class=\"hl7__ips\"><tr><td>SARS-CoV-2 mRNA vaccine</td><td><span class=\"nb\">09-Apr-2021</span></td></tr></table></div>"
        },
        "status": "completed",
        "patient": {
          "reference": "urn:uuid:4fcdf178-f14d-4a34-8a9f-bbd2cdd4603c",
          "display": "Jacob Dörr"
        },
        "occurrenceDateTime": "2021-04-09",
        "lotNumber": "BN-kNm9dDXP",
        "expirationDate": "2021-09-02"
      }
    },
    {
      "fullUrl": "urn:uuid:bca5c99a-7535-400f-9a23-cbb679bfae39",
      "resource": {
        "resourceType": "Immunization",
        "id": "bca5c99a-7535-400f-9a23-cbb679bfae39",
        "meta": {
          "profile": [
            "http://hl7.org/fhir/uv/ips/StructureDefinition/Immunization-uv-ips"
          ]
        },
        "vaccineCode": {
          "coding": [
            {
              "code": "777725002",
              "system": "http://snomed.info/sct",
              "display": "Vaccine product containing only Clostridium tetani toxoid antigen adsorbed"
            },
            {
              "code": "J07AM51",
              "system": "http://www.whocc.no/atc",
              "display": "Diphtheria-tetanus vaccines, adult type"
            }
          ],
          "text": "Clostridium tetani toxoid antigen adsorbed only vaccine product"
        },
        "site": {
          "coding": [
            {
              "code": "244979005",
              "system": "http://snomed.info/sct",
              "display": "Entire muscle of upper arm"
            }
          ],
          "text": "Entire muscle of upper arm"
        },
        "route": {
          "coding": [
            {
              "code": "78421000",
              "system": "http://snomed.info/sct",
              "display": "Intramuscular route"
            }
          ],
          "text": "Intramuscular route"
        },
        "text": {
          "status": "generated",
          "div": "<div xmlns=\"http://www.w3.org/1999/xhtml\"><table class=\"hl7__ips\"><tr><td>Clostridium tetani toxoid antigen adsorbed only vaccine product</td><td><span class=\"nb\">22-May-2020</span></td></tr></table></div>"
        },
        "status": "completed",
        "patient": {
          "reference": "urn:uuid:4fcdf178-f14d-4a34-8a9f-bbd2cdd4603c",
          "display": "Jacob Dörr"
        },
        "occurrenceDateTime": "2020-05-22",
        "lotNumber": "AY-IibxfiD9E",
        "expirationDate": "2021-02-23"
      }
    },
    {
      "fullUrl": "urn:uuid:c3ff5eb0-e1b3-4b88-8888-40bec3cd2d84",
      "resource": {
        "resourceType": "Procedure",
        "id": "c3ff5eb0-e1b3-4b88-8888-40bec3cd2d84",
        "meta": {
          "profile": [
            "http://hl7.org/fhir/uv/ips/StructureDefinition/Procedure-uv-ips"
          ]
        },
        "code": {
          "coding": [
            {
              "code": "171207006",
              "system": "http://snomed.info/sct",
              "display": "Depression screening (procedure)"
            }
          ],
          "text": "Depression screening"
        },
        "text": {
          "status": "generated",
          "div": "<div xmlns=\"http://www.w3.org/1999/xhtml\"><table class=\"hl7__ips\"><tr><td>Depression screening</td><td><span class=\"nb\">22-Jan-2021</span></td><td>-</td></tr></table></div>"
        },
        "status": "completed",
        "performedDateTime": "2021-01-22",
        "subject": {
          "reference": "urn:uuid:4fcdf178-f14d-4a34-8a9f-bbd2cdd4603c",
          "display": "Jacob Dörr"
        }
      }
    },
    {
      "fullUrl": "urn:uuid:76129845-28ce-4386-aa15-a5b7c50a111a",
      "resource": {
        "resourceType": "Procedure",
        "id": "76129845-28ce-4386-aa15-a5b7c50a111a",
        "meta": {
          "profile": [
            "http://hl7.org/fhir/uv/ips/StructureDefinition/Procedure-uv-ips"
          ]
        },
        "code": {
          "coding": [
            {
              "code": "710824005",
              "system": "http://snomed.info/sct",
              "display": "Assessment of health and social care needs (procedure)"
            }
          ],
          "text": "Assessment of health and social care needs"
        },
        "text": {
          "status": "generated",
          "div": "<div xmlns=\"http://www.w3.org/1999/xhtml\"><table class=\"hl7__ips\"><tr><td>Assessment of health and social care needs</td><td><span class=\"nb\">22-Jan-2021</span></td><td>-</td></tr></table></div>"
        },
        "status": "completed",
        "performedDateTime": "2021-01-22",
        "subject": {
          "reference": "urn:uuid:4fcdf178-f14d-4a34-8a9f-bbd2cdd4603c",
          "display": "Jacob Dörr"
        }
      }
    },
    {
      "fullUrl": "urn:uuid:3744c413-1d15-4b99-bf60-3c9fcfb18115",
      "resource": {
        "resourceType": "Procedure",
        "id": "3744c413-1d15-4b99-bf60-3c9fcfb18115",
        "meta": {
          "profile": [
            "http://hl7.org/fhir/uv/ips/StructureDefinition/Procedure-uv-ips"
          ]
        },
        "code": {
          "coding": [
            {
              "code": "713106006",
              "system": "http://snomed.info/sct",
              "display": "Screening for drug abuse (procedure)"
            }
          ],
          "text": "Screening for drug abuse"
        },
        "text": {
          "status": "generated",
          "div": "<div xmlns=\"http://www.w3.org/1999/xhtml\"><table class=\"hl7__ips\"><tr><td>Screening for drug abuse</td><td><span class=\"nb\">22-Jan-2021</span></td><td>-</td></tr></table></div>"
        },
        "status": "completed",
        "performedDateTime": "2021-01-22",
        "subject": {
          "reference": "urn:uuid:4fcdf178-f14d-4a34-8a9f-bbd2cdd4603c",
          "display": "Jacob Dörr"
        }
      }
    },
    {
      "fullUrl": "urn:uuid:fc6447e3-73a1-4c34-8741-1a4cf09dc1ff",
      "resource": {
        "resourceType": "Procedure",
        "id": "fc6447e3-73a1-4c34-8741-1a4cf09dc1ff",
        "meta": {
          "profile": [
            "http://hl7.org/fhir/uv/ips/StructureDefinition/Procedure-uv-ips"
          ]
        },
        "code": {
          "coding": [
            {
              "code": "762993000",
              "system": "http://snomed.info/sct",
              "display": "Assessment using Morse Fall Scale (procedure)"
            }
          ],
          "text": "Assessment using Morse Fall Scale"
        },
        "text": {
          "status": "generated",
          "div": "<div xmlns=\"http://www.w3.org/1999/xhtml\"><table class=\"hl7__ips\"><tr><td>Assessment using Morse Fall Scale</td><td><span class=\"nb\">22-Jan-2021</span></td><td>-</td></tr></table></div>"
        },
        "status": "completed",
        "performedDateTime": "2021-01-22",
        "subject": {
          "reference": "urn:uuid:4fcdf178-f14d-4a34-8a9f-bbd2cdd4603c",
          "display": "Jacob Dörr"
        }
      }
    },
    {
      "fullUrl": "urn:uuid:c83d50c4-b7a5-47b8-903b-405405c25266",
      "resource": {
        "resourceType": "Procedure",
        "id": "c83d50c4-b7a5-47b8-903b-405405c25266",
        "meta": {
          "profile": [
            "http://hl7.org/fhir/uv/ips/StructureDefinition/Procedure-uv-ips"
          ]
        },
        "code": {
          "coding": [
            {
              "code": "428211000124100",
              "system": "http://snomed.info/sct",
              "display": "Assessment of substance use (procedure)"
            }
          ],
          "text": "Assessment of substance use"
        },
        "text": {
          "status": "generated",
          "div": "<div xmlns=\"http://www.w3.org/1999/xhtml\"><table class=\"hl7__ips\"><tr><td>Assessment of substance use</td><td><span class=\"nb\">22-Jan-2021</span></td><td>-</td></tr></table></div>"
        },
        "status": "completed",
        "performedDateTime": "2021-01-22",
        "subject": {
          "reference": "urn:uuid:4fcdf178-f14d-4a34-8a9f-bbd2cdd4603c",
          "display": "Jacob Dörr"
        }
      }
    },
    {
      "fullUrl": "urn:uuid:d5976cff-1f55-4f50-b08a-0fe9249c61bc",
      "resource": {
        "resourceType": "Procedure",
        "id": "d5976cff-1f55-4f50-b08a-0fe9249c61bc",
        "meta": {
          "profile": [
            "http://hl7.org/fhir/uv/ips/StructureDefinition/Procedure-uv-ips"
          ]
        },
        "code": {
          "coding": [
            {
              "code": "454711000124102",
              "system": "http://snomed.info/sct",
              "display": "Depression screening using Patient Health Questionnaire Two-Item score (procedure)"
            }
          ]
        },
        "text": {
          "status": "generated",
          "div": "<div xmlns=\"http://www.w3.org/1999/xhtml\"><table class=\"hl7__ips\"><tr><td>Depression screening using Patient Health Questionnaire Two-Item score (procedure)</td><td><span class=\"nb\">22-Jan-2021</span></td><td>-</td></tr></table></div>"
        },
        "status": "completed",
        "performedDateTime": "2021-01-22",
        "subject": {
          "reference": "urn:uuid:4fcdf178-f14d-4a34-8a9f-bbd2cdd4603c",
          "display": "Jacob Dörr"
        }
      }
    },
    {
      "fullUrl": "urn:uuid:c0cc472a-4309-42d3-a84d-44bb6305502d",
      "resource": {
        "resourceType": "Procedure",
        "id": "c0cc472a-4309-42d3-a84d-44bb6305502d",
        "meta": {
          "profile": [
            "http://hl7.org/fhir/uv/ips/StructureDefinition/Procedure-uv-ips"
          ]
        },
        "code": {
          "coding": [
            {
              "code": "417511005",
              "system": "http://snomed.info/sct",
              "display": "Referral to home health care service (procedure)"
            }
          ],
          "text": "Referral to home health care service"
        },
        "text": {
          "status": "generated",
          "div": "<div xmlns=\"http://www.w3.org/1999/xhtml\"><table class=\"hl7__ips\"><tr><td>Referral to home health care service</td><td><span class=\"nb\">22-Jul-2016</span></td><td>-</td></tr></table></div>"
        },
        "status": "completed",
        "performedDateTime": "2016-07-22",
        "subject": {
          "reference": "urn:uuid:4fcdf178-f14d-4a34-8a9f-bbd2cdd4603c",
          "display": "Jacob Dörr"
        }
      }
    },
    {
      "fullUrl": "urn:uuid:264963b4-079c-4506-a1b2-fe101894c92e",
      "resource": {
        "resourceType": "Procedure",
        "id": "264963b4-079c-4506-a1b2-fe101894c92e",
        "meta": {
          "profile": [
            "http://hl7.org/fhir/uv/ips/StructureDefinition/Procedure-uv-ips"
          ]
        },
        "code": {
          "coding": [
            {
              "code": "225386006",
              "system": "http://snomed.info/sct",
              "display": "Pre-discharge assessment (procedure)"
            }
          ],
          "text": "Pre-discharge assessment"
        },
        "text": {
          "status": "generated",
          "div": "<div xmlns=\"http://www.w3.org/1999/xhtml\"><table class=\"hl7__ips\"><tr><td>Pre-discharge assessment</td><td><span class=\"nb\">10-Jul-2016</span></td><td>-</td></tr></table></div>"
        },
        "status": "completed",
        "performedDateTime": "2016-07-10",
        "subject": {
          "reference": "urn:uuid:4fcdf178-f14d-4a34-8a9f-bbd2cdd4603c",
          "display": "Jacob Dörr"
        }
      }
    },
    {
      "fullUrl": "urn:uuid:b99a5be0-de77-464c-9cad-46a8bba9eba3",
      "resource": {
        "resourceType": "Procedure",
        "id": "b99a5be0-de77-464c-9cad-46a8bba9eba3",
        "meta": {
          "profile": [
            "http://hl7.org/fhir/uv/ips/StructureDefinition/Procedure-uv-ips"
          ]
        },
        "code": {
          "coding": [
            {
              "code": "449381000124108",
              "system": "http://snomed.info/sct",
              "display": "Discharge from skilled nursing facility (procedure)"
            }
          ]
        },
        "text": {
          "status": "generated",
          "div": "<div xmlns=\"http://www.w3.org/1999/xhtml\"><table class=\"hl7__ips\"><tr><td>Discharge from skilled nursing facility (procedure)</td><td><span class=\"nb\">10-Jul-2016</span></td><td>-</td></tr></table></div>"
        },
        "status": "completed",
        "performedDateTime": "2016-07-10",
        "subject": {
          "reference": "urn:uuid:4fcdf178-f14d-4a34-8a9f-bbd2cdd4603c",
          "display": "Jacob Dörr"
        }
      }
    },
    {
      "fullUrl": "urn:uuid:51bb07cc-057e-452f-8bdc-9e8510b1fc26",
      "resource": {
        "resourceType": "Procedure",
        "id": "51bb07cc-057e-452f-8bdc-9e8510b1fc26",
        "meta": {
          "profile": [
            "http://hl7.org/fhir/uv/ips/StructureDefinition/Procedure-uv-ips"
          ]
        },
        "code": {
          "coding": [
            {
              "code": "409023009",
              "system": "http://snomed.info/sct",
              "display": "Professional / ancillary services care (regime/therapy)"
            }
          ],
          "text": "Professional / ancillary services care"
        },
        "text": {
          "status": "generated",
          "div": "<div xmlns=\"http://www.w3.org/1999/xhtml\"><table class=\"hl7__ips\"><tr><td>Professional / ancillary services care</td><td><span class=\"nb\">09-Jul-2016</span></td><td>-</td></tr></table></div>"
        },
        "status": "completed",
        "performedDateTime": "2016-07-09",
        "subject": {
          "reference": "urn:uuid:4fcdf178-f14d-4a34-8a9f-bbd2cdd4603c",
          "display": "Jacob Dörr"
        }
      }
    },
    {
      "fullUrl": "urn:uuid:4c044e52-6fec-4391-85d7-13ae51f69ca7",
      "resource": {
        "resourceType": "Procedure",
        "id": "4c044e52-6fec-4391-85d7-13ae51f69ca7",
        "meta": {
          "profile": [
            "http://hl7.org/fhir/uv/ips/StructureDefinition/Procedure-uv-ips"
          ]
        },
        "code": {
          "coding": [
            {
              "code": "410401003",
              "system": "http://snomed.info/sct",
              "display": "Nursing care/supplementary surveillance (regime/therapy)"
            }
          ],
          "text": "Nursing care/supplementary surveillance"
        },
        "text": {
          "status": "generated",
          "div": "<div xmlns=\"http://www.w3.org/1999/xhtml\"><table class=\"hl7__ips\"><tr><td>Nursing care/supplementary surveillance</td><td><span class=\"nb\">09-Jul-2016</span></td><td>-</td></tr></table></div>"
        },
        "status": "completed",
        "performedDateTime": "2016-07-09",
        "subject": {
          "reference": "urn:uuid:4fcdf178-f14d-4a34-8a9f-bbd2cdd4603c",
          "display": "Jacob Dörr"
        }
      }
    },
    {
      "fullUrl": "urn:uuid:1ee2a466-41d7-4357-a0c6-7b69cf0ace4f",
      "resource": {
        "resourceType": "Procedure",
        "id": "1ee2a466-41d7-4357-a0c6-7b69cf0ace4f",
        "meta": {
          "profile": [
            "http://hl7.org/fhir/uv/ips/StructureDefinition/Procedure-uv-ips"
          ]
        },
        "code": {
          "coding": [
            {
              "code": "392091000",
              "system": "http://snomed.info/sct",
              "display": "Care regimes assessment (procedure)"
            }
          ],
          "text": "Care regimes assessment"
        },
        "text": {
          "status": "generated",
          "div": "<div xmlns=\"http://www.w3.org/1999/xhtml\"><table class=\"hl7__ips\"><tr><td>Care regimes assessment</td><td><span class=\"nb\">06-Jul-2016</span></td><td>-</td></tr></table></div>"
        },
        "status": "completed",
        "performedDateTime": "2016-07-06",
        "subject": {
          "reference": "urn:uuid:4fcdf178-f14d-4a34-8a9f-bbd2cdd4603c",
          "display": "Jacob Dörr"
        }
      }
    },
    {
      "fullUrl": "urn:uuid:468f464e-74de-451a-a281-4a2ffec1905d",
      "resource": {
        "resourceType": "Procedure",
        "id": "468f464e-74de-451a-a281-4a2ffec1905d",
        "meta": {
          "profile": [
            "http://hl7.org/fhir/uv/ips/StructureDefinition/Procedure-uv-ips"
          ]
        },
        "code": {
          "coding": [
            {
              "code": "63332003",
              "system": "http://snomed.info/sct",
              "display": "History AND physical examination (procedure)"
            }
          ],
          "text": "History AND physical examination"
        },
        "text": {
          "status": "generated",
          "div": "<div xmlns=\"http://www.w3.org/1999/xhtml\"><table class=\"hl7__ips\"><tr><td>History AND physical examination</td><td><span class=\"nb\">03-Jul-2016</span></td><td>-</td></tr></table></div>"
        },
        "status": "completed",
        "performedDateTime": "2016-07-03",
        "subject": {
          "reference": "urn:uuid:4fcdf178-f14d-4a34-8a9f-bbd2cdd4603c",
          "display": "Jacob Dörr"
        }
      }
    },
    {
      "fullUrl": "urn:uuid:e48440cc-4903-424b-b4cd-cd81d2e12969",
      "resource": {
        "resourceType": "Procedure",
        "id": "e48440cc-4903-424b-b4cd-cd81d2e12969",
        "meta": {
          "profile": [
            "http://hl7.org/fhir/uv/ips/StructureDefinition/Procedure-uv-ips"
          ]
        },
        "code": {
          "coding": [
            {
              "code": "84478008",
              "system": "http://snomed.info/sct",
              "display": "Occupational therapy (regime/therapy)"
            }
          ],
          "text": "Occupational therapy"
        },
        "text": {
          "status": "generated",
          "div": "<div xmlns=\"http://www.w3.org/1999/xhtml\"><table class=\"hl7__ips\"><tr><td>Occupational therapy</td><td><span class=\"nb\">03-Jul-2016</span></td><td>-</td></tr></table></div>"
        },
        "status": "completed",
        "performedDateTime": "2016-07-03",
        "subject": {
          "reference": "urn:uuid:4fcdf178-f14d-4a34-8a9f-bbd2cdd4603c",
          "display": "Jacob Dörr"
        }
      }
    },
    {
      "fullUrl": "urn:uuid:23e28ce2-0e6a-4d7a-8338-5d69aa6f9efc",
      "resource": {
        "resourceType": "Procedure",
        "id": "23e28ce2-0e6a-4d7a-8338-5d69aa6f9efc",
        "meta": {
          "profile": [
            "http://hl7.org/fhir/uv/ips/StructureDefinition/Procedure-uv-ips"
          ]
        },
        "code": {
          "coding": [
            {
              "code": "315639002",
              "system": "http://snomed.info/sct",
              "display": "Initial patient assessment (procedure)"
            }
          ],
          "text": "Initial patient assessment"
        },
        "text": {
          "status": "generated",
          "div": "<div xmlns=\"http://www.w3.org/1999/xhtml\"><table class=\"hl7__ips\"><tr><td>Initial patient assessment</td><td><span class=\"nb\">03-Jul-2016</span></td><td>-</td></tr></table></div>"
        },
        "status": "completed",
        "performedDateTime": "2016-07-03",
        "subject": {
          "reference": "urn:uuid:4fcdf178-f14d-4a34-8a9f-bbd2cdd4603c",
          "display": "Jacob Dörr"
        }
      }
    },
    {
      "fullUrl": "urn:uuid:9858688d-814b-46d3-8c6a-e94004abf524",
      "resource": {
        "resourceType": "Procedure",
        "id": "9858688d-814b-46d3-8c6a-e94004abf524",
        "meta": {
          "profile": [
            "http://hl7.org/fhir/uv/ips/StructureDefinition/Procedure-uv-ips"
          ]
        },
        "code": {
          "coding": [
            {
              "code": "370789001",
              "system": "http://snomed.info/sct",
              "display": "Development of individualized plan of care (procedure)"
            }
          ],
          "text": "Development of individualized plan of care"
        },
        "text": {
          "status": "generated",
          "div": "<div xmlns=\"http://www.w3.org/1999/xhtml\"><table class=\"hl7__ips\"><tr><td>Development of individualized plan of care</td><td><span class=\"nb\">03-Jul-2016</span></td><td>-</td></tr></table></div>"
        },
        "status": "completed",
        "performedDateTime": "2016-07-03",
        "subject": {
          "reference": "urn:uuid:4fcdf178-f14d-4a34-8a9f-bbd2cdd4603c",
          "display": "Jacob Dörr"
        }
      }
    },
    {
      "fullUrl": "urn:uuid:40899001-ede1-48c7-9f18-e4b27e9c5597",
      "resource": {
        "resourceType": "AllergyIntolerance",
        "id": "40899001-ede1-48c7-9f18-e4b27e9c5597",
        "meta": {
          "profile": [
            "http://hl7.eu/fhir/base/StructureDefinition/allergyIntolerance-eu-core"
          ]
        },
        "code": {
          "text": ""
        },
        "clinicalStatus": {
          "coding": [
            {
              "code": "active",
              "system": "http://terminology.hl7.org/CodeSystem/allergyintolerance-clinical"
            }
          ]
        },
        "text": {
          "status": "generated",
          "div": "<div xmlns=\"http://www.w3.org/1999/xhtml\"><table class=\"hl7__ips\"><tr><th>Allergy/Intolerance</th><th>Onset Date</th><th>Status</th><th>Type</th><th>Reaction</th></tr><tr><td></td><td>?</td><td>active</td><td>?</td><td></td></tr></table></div>"
        },
        "verificationStatus": {
          "coding": [
            {
              "code": "confirmed",
              "system": "http://terminology.hl7.org/CodeSystem/allergyintolerance-verification"
            }
          ]
        },
        "patient": {
          "reference": "urn:uuid:4fcdf178-f14d-4a34-8a9f-bbd2cdd4603c",
          "display": "Jacob Dörr"
        },
        "_onsetDateTime": {
          "extension": [
            {
              "url": "http://hl7.org/fhir/StructureDefinition/data-absent-reason",
              "valueCode": "unknown"
            }
          ]
        }
      }
    },
    {
      "fullUrl": "urn:uuid:99de620c-1835-4425-9fdc-bb042941996b",
      "resource": {
        "resourceType": "CarePlan",
        "id": "99de620c-1835-4425-9fdc-bb042941996b",
        "category": [
          {
            "coding": [
              {
                "code": "assess-plan",
                "system": "http://terminology.hl7.org/CodeSystem/care-plan-category",
                "display": "Assessment and Plan"
              }
            ]
          }
        ],
        "activity": [
          {
            "detail": {
              "code": {
                "coding": [
                  {
                    "code": "736285004",
                    "system": "http://snomed.info/sct",
                    "display": "Hyperlipidemia clinical management plan (record artifact)"
                  }
                ]
              },
              "reasonCode": [
                {
                  "coding": [
                    {
                      "code": "55822004",
                      "system": "http://snomed.info/sct",
                      "display": "Hyperlipidemia"
                    }
                  ]
                }
              ],
              "status": "unknown",
              "description": "Hyperlipidemia clinical management plan",
              "kind": "Appointment"
            }
          }
        ],
        "period": {
          "start": "1996-01-26"
        },
        "goal": [
          {
            "reference": "urn:uuid:9b8692f0-3f7e-4f30-a7a3-9675bdd3b0c5"
          },
          {
            "reference": "urn:uuid:8e97f318-2176-4956-9cd9-5aabefff324a"
          },
          {
            "reference": "urn:uuid:533ff98c-0ed1-4176-b316-3881eeefaf2a"
          },
          {
            "reference": "urn:uuid:72c4d7e8-29a6-4e82-b165-80b4ac8c5911"
          }
        ],
        "text": {
          "status": "generated",
          "div": "<div xmlns=\"http://www.w3.org/1999/xhtml\"><table class=\"hl7__ips first25\"><tr><th>Active Planned Care / Goals</th><th>Start Date</th><th>Reason</th></tr><tr><td>Hyperlipidemia clinical management plan</td><td><span class=\"nb\">26-Jan-1996</span></td><td>Hyperlipidemia</td></tr><tr><td><ul><li>Achieve and maintain LDL cholesterol below 70 mg/dL</li><li>Achieve and maintain total cholesterol below 150 mg/dL</li><li>Maintain HDL cholesterol above 40 mg/dL</li><li>Achieve and maintain triglycerides below 150 mg/dL</li></ul></td><td></td><td></td></tr></table></div>"
        },
        "status": "active",
        "intent": "plan",
        "subject": {
          "reference": "urn:uuid:4fcdf178-f14d-4a34-8a9f-bbd2cdd4603c",
          "display": "Jacob Dörr"
        }
      }
    },
    {
      "fullUrl": "urn:uuid:d92f2a06-3a60-47d8-ac81-26b6d650a763",
      "resource": {
        "resourceType": "CarePlan",
        "id": "d92f2a06-3a60-47d8-ac81-26b6d650a763",
        "category": [
          {
            "coding": [
              {
                "code": "assess-plan",
                "system": "http://terminology.hl7.org/CodeSystem/care-plan-category",
                "display": "Assessment and Plan"
              }
            ]
          }
        ],
        "activity": [
          {
            "detail": {
              "code": {
                "coding": [
                  {
                    "code": "443402002",
                    "system": "http://snomed.info/sct",
                    "display": "Lifestyle education regarding hypertension (procedure)"
                  }
                ]
              },
              "reasonCode": [
                {
                  "coding": [
                    {
                      "code": "59621000",
                      "system": "http://snomed.info/sct",
                      "display": "Essential hypertension (disorder)"
                    }
                  ]
                }
              ],
              "status": "unknown",
              "description": "Lifestyle education regarding hypertension",
              "kind": "Appointment"
            }
          }
        ],
        "period": {
          "start": "1988-11-25"
        },
        "goal": [
          {
            "reference": "urn:uuid:b06f9803-5c47-4a36-8c95-a5ddbffd93ee"
          },
          {
            "reference": "urn:uuid:4815fac9-0afc-407d-bf8b-8b52f4fcecb3"
          },
          {
            "reference": "urn:uuid:0dbb784c-c3bb-424d-8141-21f3ba3abcc3"
          },
          {
            "reference": "urn:uuid:77c7d775-0b1b-48e6-a9e5-969f8c6269e1"
          },
          {
            "reference": "urn:uuid:2fd9fa25-e7f7-46a4-a599-99b7889fc166"
          }
        ],
        "text": {
          "status": "generated",
          "div": "<div xmlns=\"http://www.w3.org/1999/xhtml\"><table class=\"hl7__ips first25\"><tr><th>Active Planned Care / Goals</th><th>Start Date</th><th>Reason</th></tr><tr><td>Lifestyle education regarding hypertension</td><td><span class=\"nb\">25-Nov-1988</span></td><td>Essential hypertension (disorder)</td></tr><tr><td><ul><li>Achieve and maintain systolic blood pressure below 130 mm[Hg] through lifestyle modifications.</li><li>Achieve and maintain diastolic blood pressure below 80 mm[Hg] through lifestyle modifications.</li><li>Reduce daily sodium intake to less than 2.3 g per day as part of hypertension management.</li><li>Engage in at least 150 minutes of moderate-intensity aerobic physical activity per week to support blood pressure control.</li><li>Achieve a 5% reduction in body weight to support blood pressure control.</li></ul></td><td></td><td></td></tr></table></div>"
        },
        "status": "active",
        "intent": "plan",
        "subject": {
          "reference": "urn:uuid:4fcdf178-f14d-4a34-8a9f-bbd2cdd4603c",
          "display": "Jacob Dörr"
        }
      }
    },
    {
      "fullUrl": "urn:uuid:9708599e-ea02-45b7-9f7d-5e4a42c84f2a",
      "resource": {
        "resourceType": "CarePlan",
        "id": "9708599e-ea02-45b7-9f7d-5e4a42c84f2a",
        "category": [
          {
            "coding": [
              {
                "code": "assess-plan",
                "system": "http://terminology.hl7.org/CodeSystem/care-plan-category",
                "display": "Assessment and Plan"
              }
            ]
          }
        ],
        "activity": [
          {
            "detail": {
              "code": {
                "coding": [
                  {
                    "code": "698360004",
                    "system": "http://snomed.info/sct",
                    "display": "Diabetes self management plan (qualifier value)"
                  }
                ]
              },
              "reasonCode": [
                {
                  "coding": [
                    {
                      "code": "15777000",
                      "system": "http://snomed.info/sct",
                      "display": "Prediabetes"
                    }
                  ]
                }
              ],
              "status": "unknown",
              "description": "Diabetes self management plan",
              "kind": "Appointment"
            }
          }
        ],
        "period": {
          "start": "1983-02-04"
        },
        "goal": [
          {
            "reference": "urn:uuid:b39e1d67-28af-44dd-bb10-5008ec2a7cf8"
          },
          {
            "reference": "urn:uuid:17064539-7383-49e8-981a-f1d30015d9b9"
          },
          {
            "reference": "urn:uuid:bd1af5d2-f448-489f-8627-05d71cef2bf5"
          },
          {
            "reference": "urn:uuid:f6df38cc-29e1-48ed-915a-8fa788d1787e"
          }
        ],
        "text": {
          "status": "generated",
          "div": "<div xmlns=\"http://www.w3.org/1999/xhtml\"><table class=\"hl7__ips first25\"><tr><th>Active Planned Care / Goals</th><th>Start Date</th><th>Reason</th></tr><tr><td>Diabetes self management plan</td><td><span class=\"nb\">04-Feb-1983</span></td><td>Prediabetes</td></tr><tr><td><ul><li>Patient will verbalize understanding of prediabetes, healthy eating, physical activity, and blood glucose monitoring as part of diabetes self-management.</li><li>Maintain hemoglobin A1c below 6.5% to prevent progression to diabetes.</li><li>Achieve and maintain at least 5% weight loss from baseline to reduce risk of diabetes progression.</li><li>Engage in at least 150 minutes per week of moderate-intensity physical activity.</li></ul></td><td></td><td></td></tr></table></div>"
        },
        "status": "active",
        "intent": "plan",
        "subject": {
          "reference": "urn:uuid:4fcdf178-f14d-4a34-8a9f-bbd2cdd4603c",
          "display": "Jacob Dörr"
        }
      }
    },
    {
      "fullUrl": "urn:uuid:6212e886-f5f5-4742-ab51-757831bb6099",
      "resource": {
        "resourceType": "ImmunizationRecommendation",
        "id": "6212e886-f5f5-4742-ab51-757831bb6099",
        "recommendation": [
          {
            "vaccineCode": [
              {
                "coding": [
                  {
                    "code": "1181000221105",
                    "system": "http://snomed.info/sct",
                    "display": "Vaccine product containing only Influenza virus antigen (medicinal product)"
                  }
                ]
              }
            ],
            "dateCriterion": [
              {
                "code": {
                  "coding": [
                    {
                      "code": "30980-7",
                      "system": "http://loinc.org",
                      "display": "Date vaccine due"
                    }
                  ]
                },
                "value": "2025-10-01"
              }
            ],
            "targetDisease": {
              "coding": [
                {
                  "code": "6142004",
                  "system": "http://snomed.info/sct",
                  "display": "Influenza (disorder)"
                }
              ]
            },
            "series": "Annual seasonal influenza vaccination",
            "forecastStatus": {
              "coding": [
                {
                  "code": "due",
                  "system": "http://terminology.hl7.org/CodeSystem/immunization-recommendation-status",
                  "display": "Due"
                }
              ]
            }
          }
        ],
        "text": {
          "status": "generated",
          "div": "<div xmlns=\"http://www.w3.org/1999/xhtml\"><table class=\"hl7__ips\"><tr><td>Vaccine product containing only Influenza virus antigen (medicinal product)</td><td><span class=\"nb\">01-Oct-2025</span></td><td>Annual seasonal influenza vaccination</td></tr></table></div>"
        },
        "date": "2025-12-11",
        "patient": {
          "reference": "urn:uuid:4fcdf178-f14d-4a34-8a9f-bbd2cdd4603c",
          "display": "Jacob Dörr"
        }
      }
    },
    {
      "fullUrl": "urn:uuid:3aecba5a-1b88-4950-80de-59070e04f3c5",
      "resource": {
        "resourceType": "Observation",
        "id": "3aecba5a-1b88-4950-80de-59070e04f3c5",
        "meta": {
          "profile": [
            "http://hl7.org/fhir/StructureDefinition/vitalsigns"
          ]
        },
        "category": [
          {
            "coding": [
              {
                "system": "http://terminology.hl7.org/CodeSystem/observation-category",
                "code": "vital-signs",
                "display": "Vital Signs"
              }
            ]
          }
        ],
        "valueQuantity": {
          "value": 185.6,
          "code": "cm",
          "unit": "cm"
        },
        "text": {
          "status": "generated",
          "div": "<div xmlns=\"http://www.w3.org/1999/xhtml\"><table class=\"hl7__ips\"><tr><th>Vital Sign</th><th>Date</th><th>Measurement</th></tr><tr><td>Body Height</td><td>20-Jun-2025</td><td>185.6 cm</td></tr></table></div>"
        },
        "status": "final",
        "code": {
          "coding": [
            {
              "code": "8302-2",
              "system": "http://loinc.org",
              "display": "Body Height"
            }
          ]
        },
        "subject": {
          "reference": "urn:uuid:4fcdf178-f14d-4a34-8a9f-bbd2cdd4603c",
          "display": "Jacob Dörr"
        },
        "effectiveDateTime": "2025-06-20"
      }
    },
    {
      "fullUrl": "urn:uuid:2aa2cf84-b6d2-4a67-9a36-2bf9c4b98795",
      "resource": {
        "resourceType": "Observation",
        "id": "2aa2cf84-b6d2-4a67-9a36-2bf9c4b98795",
        "meta": {
          "profile": [
            "http://hl7.org/fhir/StructureDefinition/vitalsigns"
          ]
        },
        "category": [
          {
            "coding": [
              {
                "system": "http://terminology.hl7.org/CodeSystem/observation-category",
                "code": "vital-signs",
                "display": "Vital Signs"
              }
            ]
          }
        ],
        "valueQuantity": {
          "value": 2,
          "code": "{score}",
          "unit": "{score}"
        },
        "text": {
          "status": "generated",
          "div": "<div xmlns=\"http://www.w3.org/1999/xhtml\"><table class=\"hl7__ips\"><tr><th>Vital Sign</th><th>Date</th><th>Measurement</th></tr><tr><td>Pain severity - 0-10 verbal numeric rating [Score] - Reported</td><td>20-Jun-2025</td><td>2 {score}</td></tr></table></div>"
        },
        "status": "final",
        "code": {
          "coding": [
            {
              "code": "72514-3",
              "system": "http://loinc.org",
              "display": "Pain severity - 0-10 verbal numeric rating [Score] - Reported"
            }
          ]
        },
        "subject": {
          "reference": "urn:uuid:4fcdf178-f14d-4a34-8a9f-bbd2cdd4603c",
          "display": "Jacob Dörr"
        },
        "effectiveDateTime": "2025-06-20"
      }
    },
    {
      "fullUrl": "urn:uuid:246f3a0c-a126-4d25-abdc-a0f747a8bced",
      "resource": {
        "resourceType": "Observation",
        "id": "246f3a0c-a126-4d25-abdc-a0f747a8bced",
        "meta": {
          "profile": [
            "http://hl7.org/fhir/StructureDefinition/vitalsigns"
          ]
        },
        "category": [
          {
            "coding": [
              {
                "system": "http://terminology.hl7.org/CodeSystem/observation-category",
                "code": "vital-signs",
                "display": "Vital Signs"
              }
            ]
          }
        ],
        "valueQuantity": {
          "value": 104.2,
          "code": "kg",
          "unit": "kg"
        },
        "text": {
          "status": "generated",
          "div": "<div xmlns=\"http://www.w3.org/1999/xhtml\"><table class=\"hl7__ips\"><tr><th>Vital Sign</th><th>Date</th><th>Measurement</th></tr><tr><td>Body Weight</td><td>20-Jun-2025</td><td>104.2 kg</td></tr></table></div>"
        },
        "status": "final",
        "code": {
          "coding": [
            {
              "code": "29463-7",
              "system": "http://loinc.org",
              "display": "Body Weight"
            }
          ]
        },
        "subject": {
          "reference": "urn:uuid:4fcdf178-f14d-4a34-8a9f-bbd2cdd4603c",
          "display": "Jacob Dörr"
        },
        "effectiveDateTime": "2025-06-20"
      }
    },
    {
      "fullUrl": "urn:uuid:d6fd59a3-e5cb-4490-b8d0-87a43cecc370",
      "resource": {
        "resourceType": "Observation",
        "id": "d6fd59a3-e5cb-4490-b8d0-87a43cecc370",
        "meta": {
          "profile": [
            "http://hl7.org/fhir/StructureDefinition/vitalsigns"
          ]
        },
        "category": [
          {
            "coding": [
              {
                "system": "http://terminology.hl7.org/CodeSystem/observation-category",
                "code": "vital-signs",
                "display": "Vital Signs"
              }
            ]
          }
        ],
        "valueQuantity": {
          "value": 30.3,
          "code": "kg/m2",
          "unit": "kg/m2"
        },
        "text": {
          "status": "generated",
          "div": "<div xmlns=\"http://www.w3.org/1999/xhtml\"><table class=\"hl7__ips\"><tr><th>Vital Sign</th><th>Date</th><th>Measurement</th></tr><tr><td>Body mass index (BMI) [Ratio]</td><td>20-Jun-2025</td><td>30.3 kg/m2</td></tr></table></div>"
        },
        "status": "final",
        "code": {
          "coding": [
            {
              "code": "39156-5",
              "system": "http://loinc.org",
              "display": "Body mass index (BMI) [Ratio]"
            }
          ]
        },
        "subject": {
          "reference": "urn:uuid:4fcdf178-f14d-4a34-8a9f-bbd2cdd4603c",
          "display": "Jacob Dörr"
        },
        "effectiveDateTime": "2025-06-20"
      }
    },
    {
      "fullUrl": "urn:uuid:d09774b6-72ec-4790-9098-5055aa3cde5c",
      "resource": {
        "resourceType": "Observation",
        "id": "d09774b6-72ec-4790-9098-5055aa3cde5c",
        "meta": {
          "profile": [
            "http://hl7.org/fhir/StructureDefinition/vitalsigns"
          ]
        },
        "category": [
          {
            "coding": [
              {
                "system": "http://terminology.hl7.org/CodeSystem/observation-category",
                "code": "vital-signs",
                "display": "Vital Signs"
              }
            ]
          }
        ],
        "valueQuantity": {
          "value": 65,
          "code": "mm[Hg]",
          "unit": "mm[Hg]"
        },
        "text": {
          "status": "generated",
          "div": "<div xmlns=\"http://www.w3.org/1999/xhtml\"><table class=\"hl7__ips\"><tr><th>Vital Sign</th><th>Date</th><th>Measurement</th></tr><tr><td>Diastolic Blood Pressure</td><td>20-Jun-2025</td><td>65 mm[Hg]</td></tr></table></div>"
        },
        "status": "final",
        "code": {
          "coding": [
            {
              "code": "8462-4",
              "system": "http://loinc.org",
              "display": "Diastolic Blood Pressure"
            }
          ]
        },
        "subject": {
          "reference": "urn:uuid:4fcdf178-f14d-4a34-8a9f-bbd2cdd4603c",
          "display": "Jacob Dörr"
        },
        "effectiveDateTime": "2025-06-20"
      }
    },
    {
      "fullUrl": "urn:uuid:bd19bc48-7ecf-4207-891e-dae4f3777b08",
      "resource": {
        "resourceType": "Observation",
        "id": "bd19bc48-7ecf-4207-891e-dae4f3777b08",
        "meta": {
          "profile": [
            "http://hl7.org/fhir/StructureDefinition/vitalsigns"
          ]
        },
        "category": [
          {
            "coding": [
              {
                "system": "http://terminology.hl7.org/CodeSystem/observation-category",
                "code": "vital-signs",
                "display": "Vital Signs"
              }
            ]
          }
        ],
        "valueQuantity": {
          "value": 107,
          "code": "mm[Hg]",
          "unit": "mm[Hg]"
        },
        "text": {
          "status": "generated",
          "div": "<div xmlns=\"http://www.w3.org/1999/xhtml\"><table class=\"hl7__ips\"><tr><th>Vital Sign</th><th>Date</th><th>Measurement</th></tr><tr><td>Systolic Blood Pressure</td><td>20-Jun-2025</td><td>107 mm[Hg]</td></tr></table></div>"
        },
        "status": "final",
        "code": {
          "coding": [
            {
              "code": "8480-6",
              "system": "http://loinc.org",
              "display": "Systolic Blood Pressure"
            }
          ]
        },
        "subject": {
          "reference": "urn:uuid:4fcdf178-f14d-4a34-8a9f-bbd2cdd4603c",
          "display": "Jacob Dörr"
        },
        "effectiveDateTime": "2025-06-20"
      }
    },
    {
      "fullUrl": "urn:uuid:66558dc9-740c-41d1-8851-166080fb211c",
      "resource": {
        "resourceType": "Observation",
        "id": "66558dc9-740c-41d1-8851-166080fb211c",
        "meta": {
          "profile": [
            "http://hl7.org/fhir/StructureDefinition/vitalsigns"
          ]
        },
        "category": [
          {
            "coding": [
              {
                "system": "http://terminology.hl7.org/CodeSystem/observation-category",
                "code": "vital-signs",
                "display": "Vital Signs"
              }
            ]
          }
        ],
        "valueQuantity": {
          "value": 60,
          "code": "/min",
          "unit": "/min"
        },
        "text": {
          "status": "generated",
          "div": "<div xmlns=\"http://www.w3.org/1999/xhtml\"><table class=\"hl7__ips\"><tr><th>Vital Sign</th><th>Date</th><th>Measurement</th></tr><tr><td>Heart rate</td><td>20-Jun-2025</td><td>60 /min</td></tr></table></div>"
        },
        "status": "final",
        "code": {
          "coding": [
            {
              "code": "8867-4",
              "system": "http://loinc.org",
              "display": "Heart rate"
            }
          ]
        },
        "subject": {
          "reference": "urn:uuid:4fcdf178-f14d-4a34-8a9f-bbd2cdd4603c",
          "display": "Jacob Dörr"
        },
        "effectiveDateTime": "2025-06-20"
      }
    },
    {
      "fullUrl": "urn:uuid:1bc7e3d9-dfd0-4551-8657-871766d64742",
      "resource": {
        "resourceType": "Observation",
        "id": "1bc7e3d9-dfd0-4551-8657-871766d64742",
        "meta": {
          "profile": [
            "http://hl7.org/fhir/StructureDefinition/vitalsigns"
          ]
        },
        "category": [
          {
            "coding": [
              {
                "system": "http://terminology.hl7.org/CodeSystem/observation-category",
                "code": "vital-signs",
                "display": "Vital Signs"
              }
            ]
          }
        ],
        "valueQuantity": {
          "value": 13,
          "code": "/min",
          "unit": "/min"
        },
        "text": {
          "status": "generated",
          "div": "<div xmlns=\"http://www.w3.org/1999/xhtml\"><table class=\"hl7__ips\"><tr><th>Vital Sign</th><th>Date</th><th>Measurement</th></tr><tr><td>Respiratory rate</td><td>20-Jun-2025</td><td>13 /min</td></tr></table></div>"
        },
        "status": "final",
        "code": {
          "coding": [
            {
              "code": "9279-1",
              "system": "http://loinc.org",
              "display": "Respiratory rate"
            }
          ]
        },
        "subject": {
          "reference": "urn:uuid:4fcdf178-f14d-4a34-8a9f-bbd2cdd4603c",
          "display": "Jacob Dörr"
        },
        "effectiveDateTime": "2025-06-20"
      }
    },
    {
      "fullUrl": "urn:uuid:9900f74b-703d-49a1-88dd-9db8a338d88a",
      "resource": {
        "resourceType": "Observation",
        "id": "9900f74b-703d-49a1-88dd-9db8a338d88a",
        "meta": {
          "profile": [
            "http://hl7.org/fhir/StructureDefinition/vitalsigns"
          ]
        },
        "category": [
          {
            "coding": [
              {
                "system": "http://terminology.hl7.org/CodeSystem/observation-category",
                "code": "vital-signs",
                "display": "Vital Signs"
              }
            ]
          }
        ],
        "valueQuantity": {
          "value": 185.6,
          "code": "cm",
          "unit": "cm"
        },
        "text": {
          "status": "generated",
          "div": "<div xmlns=\"http://www.w3.org/1999/xhtml\"><table class=\"hl7__ips\"><tr><th>Vital Sign</th><th>Date</th><th>Measurement</th></tr><tr><td>Body Height</td><td>14-Jun-2024</td><td>185.6 cm</td></tr></table></div>"
        },
        "status": "final",
        "code": {
          "coding": [
            {
              "code": "8302-2",
              "system": "http://loinc.org",
              "display": "Body Height"
            }
          ]
        },
        "subject": {
          "reference": "urn:uuid:4fcdf178-f14d-4a34-8a9f-bbd2cdd4603c",
          "display": "Jacob Dörr"
        },
        "effectiveDateTime": "2024-06-14"
      }
    },
    {
      "fullUrl": "urn:uuid:9d07cc1c-3381-4762-b62a-b498af40dbc7",
      "resource": {
        "resourceType": "Observation",
        "id": "9d07cc1c-3381-4762-b62a-b498af40dbc7",
        "meta": {
          "profile": [
            "http://hl7.org/fhir/StructureDefinition/vitalsigns"
          ]
        },
        "category": [
          {
            "coding": [
              {
                "system": "http://terminology.hl7.org/CodeSystem/observation-category",
                "code": "vital-signs",
                "display": "Vital Signs"
              }
            ]
          }
        ],
        "valueQuantity": {
          "value": 3,
          "code": "{score}",
          "unit": "{score}"
        },
        "text": {
          "status": "generated",
          "div": "<div xmlns=\"http://www.w3.org/1999/xhtml\"><table class=\"hl7__ips\"><tr><th>Vital Sign</th><th>Date</th><th>Measurement</th></tr><tr><td>Pain severity - 0-10 verbal numeric rating [Score] - Reported</td><td>14-Jun-2024</td><td>3 {score}</td></tr></table></div>"
        },
        "status": "final",
        "code": {
          "coding": [
            {
              "code": "72514-3",
              "system": "http://loinc.org",
              "display": "Pain severity - 0-10 verbal numeric rating [Score] - Reported"
            }
          ]
        },
        "subject": {
          "reference": "urn:uuid:4fcdf178-f14d-4a34-8a9f-bbd2cdd4603c",
          "display": "Jacob Dörr"
        },
        "effectiveDateTime": "2024-06-14"
      }
    },
    {
      "fullUrl": "urn:uuid:297a0fa6-b82e-4ffa-9a80-17d235b2bba7",
      "resource": {
        "resourceType": "Observation",
        "id": "297a0fa6-b82e-4ffa-9a80-17d235b2bba7",
        "meta": {
          "profile": [
            "http://hl7.org/fhir/StructureDefinition/vitalsigns"
          ]
        },
        "category": [
          {
            "coding": [
              {
                "system": "http://terminology.hl7.org/CodeSystem/observation-category",
                "code": "vital-signs",
                "display": "Vital Signs"
              }
            ]
          }
        ],
        "valueQuantity": {
          "value": 104.2,
          "code": "kg",
          "unit": "kg"
        },
        "text": {
          "status": "generated",
          "div": "<div xmlns=\"http://www.w3.org/1999/xhtml\"><table class=\"hl7__ips\"><tr><th>Vital Sign</th><th>Date</th><th>Measurement</th></tr><tr><td>Body Weight</td><td>14-Jun-2024</td><td>104.2 kg</td></tr></table></div>"
        },
        "status": "final",
        "code": {
          "coding": [
            {
              "code": "29463-7",
              "system": "http://loinc.org",
              "display": "Body Weight"
            }
          ]
        },
        "subject": {
          "reference": "urn:uuid:4fcdf178-f14d-4a34-8a9f-bbd2cdd4603c",
          "display": "Jacob Dörr"
        },
        "effectiveDateTime": "2024-06-14"
      }
    },
    {
      "fullUrl": "urn:uuid:cdda1edc-e421-4b76-8392-a97f88071b88",
      "resource": {
        "resourceType": "Observation",
        "id": "cdda1edc-e421-4b76-8392-a97f88071b88",
        "meta": {
          "profile": [
            "http://hl7.org/fhir/StructureDefinition/vitalsigns"
          ]
        },
        "category": [
          {
            "coding": [
              {
                "system": "http://terminology.hl7.org/CodeSystem/observation-category",
                "code": "vital-signs",
                "display": "Vital Signs"
              }
            ]
          }
        ],
        "valueQuantity": {
          "value": 30.3,
          "code": "kg/m2",
          "unit": "kg/m2"
        },
        "text": {
          "status": "generated",
          "div": "<div xmlns=\"http://www.w3.org/1999/xhtml\"><table class=\"hl7__ips\"><tr><th>Vital Sign</th><th>Date</th><th>Measurement</th></tr><tr><td>Body mass index (BMI) [Ratio]</td><td>14-Jun-2024</td><td>30.3 kg/m2</td></tr></table></div>"
        },
        "status": "final",
        "code": {
          "coding": [
            {
              "code": "39156-5",
              "system": "http://loinc.org",
              "display": "Body mass index (BMI) [Ratio]"
            }
          ]
        },
        "subject": {
          "reference": "urn:uuid:4fcdf178-f14d-4a34-8a9f-bbd2cdd4603c",
          "display": "Jacob Dörr"
        },
        "effectiveDateTime": "2024-06-14"
      }
    },
    {
      "fullUrl": "urn:uuid:05f6b4d7-f7e2-43ea-90d0-f4043bec9b27",
      "resource": {
        "resourceType": "Observation",
        "id": "05f6b4d7-f7e2-43ea-90d0-f4043bec9b27",
        "meta": {
          "profile": [
            "http://hl7.org/fhir/StructureDefinition/vitalsigns"
          ]
        },
        "category": [
          {
            "coding": [
              {
                "system": "http://terminology.hl7.org/CodeSystem/observation-category",
                "code": "vital-signs",
                "display": "Vital Signs"
              }
            ]
          }
        ],
        "valueQuantity": {
          "value": 62,
          "code": "mm[Hg]",
          "unit": "mm[Hg]"
        },
        "text": {
          "status": "generated",
          "div": "<div xmlns=\"http://www.w3.org/1999/xhtml\"><table class=\"hl7__ips\"><tr><th>Vital Sign</th><th>Date</th><th>Measurement</th></tr><tr><td>Diastolic Blood Pressure</td><td>14-Jun-2024</td><td>62 mm[Hg]</td></tr></table></div>"
        },
        "status": "final",
        "code": {
          "coding": [
            {
              "code": "8462-4",
              "system": "http://loinc.org",
              "display": "Diastolic Blood Pressure"
            }
          ]
        },
        "subject": {
          "reference": "urn:uuid:4fcdf178-f14d-4a34-8a9f-bbd2cdd4603c",
          "display": "Jacob Dörr"
        },
        "effectiveDateTime": "2024-06-14"
      }
    },
    {
      "fullUrl": "urn:uuid:38fc4d5e-89b9-423a-a8bd-dfdeb1318a08",
      "resource": {
        "resourceType": "Observation",
        "id": "38fc4d5e-89b9-423a-a8bd-dfdeb1318a08",
        "meta": {
          "profile": [
            "http://hl7.org/fhir/StructureDefinition/vitalsigns"
          ]
        },
        "category": [
          {
            "coding": [
              {
                "system": "http://terminology.hl7.org/CodeSystem/observation-category",
                "code": "vital-signs",
                "display": "Vital Signs"
              }
            ]
          }
        ],
        "valueQuantity": {
          "value": 102,
          "code": "mm[Hg]",
          "unit": "mm[Hg]"
        },
        "text": {
          "status": "generated",
          "div": "<div xmlns=\"http://www.w3.org/1999/xhtml\"><table class=\"hl7__ips\"><tr><th>Vital Sign</th><th>Date</th><th>Measurement</th></tr><tr><td>Systolic Blood Pressure</td><td>14-Jun-2024</td><td>102 mm[Hg]</td></tr></table></div>"
        },
        "status": "final",
        "code": {
          "coding": [
            {
              "code": "8480-6",
              "system": "http://loinc.org",
              "display": "Systolic Blood Pressure"
            }
          ]
        },
        "subject": {
          "reference": "urn:uuid:4fcdf178-f14d-4a34-8a9f-bbd2cdd4603c",
          "display": "Jacob Dörr"
        },
        "effectiveDateTime": "2024-06-14"
      }
    },
    {
      "fullUrl": "urn:uuid:cdf9a3e7-d91e-434a-b455-f1b350f57156",
      "resource": {
        "resourceType": "Observation",
        "id": "cdf9a3e7-d91e-434a-b455-f1b350f57156",
        "meta": {
          "profile": [
            "http://hl7.org/fhir/StructureDefinition/vitalsigns"
          ]
        },
        "category": [
          {
            "coding": [
              {
                "system": "http://terminology.hl7.org/CodeSystem/observation-category",
                "code": "vital-signs",
                "display": "Vital Signs"
              }
            ]
          }
        ],
        "valueQuantity": {
          "value": 66,
          "code": "/min",
          "unit": "/min"
        },
        "text": {
          "status": "generated",
          "div": "<div xmlns=\"http://www.w3.org/1999/xhtml\"><table class=\"hl7__ips\"><tr><th>Vital Sign</th><th>Date</th><th>Measurement</th></tr><tr><td>Heart rate</td><td>14-Jun-2024</td><td>66 /min</td></tr></table></div>"
        },
        "status": "final",
        "code": {
          "coding": [
            {
              "code": "8867-4",
              "system": "http://loinc.org",
              "display": "Heart rate"
            }
          ]
        },
        "subject": {
          "reference": "urn:uuid:4fcdf178-f14d-4a34-8a9f-bbd2cdd4603c",
          "display": "Jacob Dörr"
        },
        "effectiveDateTime": "2024-06-14"
      }
    },
    {
      "fullUrl": "urn:uuid:1f19433a-9268-4dfe-8626-34c53a88246b",
      "resource": {
        "resourceType": "Observation",
        "id": "1f19433a-9268-4dfe-8626-34c53a88246b",
        "meta": {
          "profile": [
            "http://hl7.org/fhir/StructureDefinition/vitalsigns"
          ]
        },
        "category": [
          {
            "coding": [
              {
                "system": "http://terminology.hl7.org/CodeSystem/observation-category",
                "code": "vital-signs",
                "display": "Vital Signs"
              }
            ]
          }
        ],
        "valueQuantity": {
          "value": 15,
          "code": "/min",
          "unit": "/min"
        },
        "text": {
          "status": "generated",
          "div": "<div xmlns=\"http://www.w3.org/1999/xhtml\"><table class=\"hl7__ips\"><tr><th>Vital Sign</th><th>Date</th><th>Measurement</th></tr><tr><td>Respiratory rate</td><td>14-Jun-2024</td><td>15 /min</td></tr></table></div>"
        },
        "status": "final",
        "code": {
          "coding": [
            {
              "code": "9279-1",
              "system": "http://loinc.org",
              "display": "Respiratory rate"
            }
          ]
        },
        "subject": {
          "reference": "urn:uuid:4fcdf178-f14d-4a34-8a9f-bbd2cdd4603c",
          "display": "Jacob Dörr"
        },
        "effectiveDateTime": "2024-06-14"
      }
    },
    {
      "fullUrl": "urn:uuid:45bdc5fc-8b4e-4b3d-b5b7-f7f387df10a4",
      "resource": {
        "resourceType": "Observation",
        "id": "45bdc5fc-8b4e-4b3d-b5b7-f7f387df10a4",
        "meta": {
          "profile": [
            "http://hl7.eu/fhir/laboratory/StructureDefinition/Observation-resultslab-eu-lab"
          ]
        },
        "performer": [
          {
            "display": "The Central European Lab"
          }
        ],
        "category": [
          {
            "coding": [
              {
                "system": "http://terminology.hl7.org/CodeSystem/observation-category",
                "code": "laboratory"
              }
            ]
          }
        ],
        "code": {
          "coding": [
            {
              "code": "2339-0",
              "system": "http://loinc.org",
              "display": "Glucose [Mass/volume] in Blood"
            }
          ],
          "text": "Glucose [Mass/volume] in Blood"
        },
        "valueQuantity": {
          "system": "http://unitsofmeasure.org",
          "value": 99,
          "unit": "mg/dL",
          "code": "mg/dL"
        },
        "referenceRange": [
          {
            "low": {
              "value": 70,
              "code": "mg/dL",
              "system": "http://unitsofmeasure.org"
            }
          },
          {
            "high": {
              "value": 140,
              "code": "mg/dL",
              "system": "http://unitsofmeasure.org"
            }
          }
        ],
        "text": {
          "status": "generated",
          "div": "<div xmlns=\"http://www.w3.org/1999/xhtml\"><table class=\"hl7__eu__lab__report\"><tr><th>Test</th><th>21-Jun-2025</th><th>Reference&#xA0;Range</th><th>Unit</th></tr><tr><td>Glucose [Mass/volume] in Blood</td><td>99.0</td><td>70 - 140</td><td></td><td>mg/dL</td></tr></table></div>"
        },
        "status": "final",
        "subject": {
          "reference": "urn:uuid:4fcdf178-f14d-4a34-8a9f-bbd2cdd4603c",
          "display": "Jacob Dörr"
        },
        "effectiveDateTime": "2025-06-21T14:04:28Z"
      }
    },
    {
      "fullUrl": "urn:uuid:20d4f2fe-67fc-4313-a0d1-3ec5ccd5db43",
      "resource": {
        "resourceType": "Observation",
        "id": "20d4f2fe-67fc-4313-a0d1-3ec5ccd5db43",
        "meta": {
          "profile": [
            "http://hl7.eu/fhir/laboratory/StructureDefinition/Observation-resultslab-eu-lab"
          ]
        },
        "performer": [
          {
            "display": "The Central European Lab"
          }
        ],
        "category": [
          {
            "coding": [
              {
                "system": "http://terminology.hl7.org/CodeSystem/observation-category",
                "code": "laboratory"
              }
            ]
          }
        ],
        "code": {
          "coding": [
            {
              "code": "6299-2",
              "system": "http://loinc.org",
              "display": "Urea nitrogen [Mass/volume] in Blood"
            }
          ],
          "text": "Urea nitrogen [Mass/volume] in Blood"
        },
        "valueQuantity": {
          "system": "http://unitsofmeasure.org",
          "value": 16.8,
          "unit": "mg/dL",
          "code": "mg/dL"
        },
        "referenceRange": [
          {
            "low": {
              "value": 7,
              "code": "mg/dL",
              "system": "http://unitsofmeasure.org"
            }
          },
          {
            "high": {
              "value": 50,
              "code": "mg/dL",
              "system": "http://unitsofmeasure.org"
            }
          }
        ],
        "text": {
          "status": "generated",
          "div": "<div xmlns=\"http://www.w3.org/1999/xhtml\"><table class=\"hl7__eu__lab__report\"><tr><th>Test</th><th>21-Jun-2025</th><th>Reference&#xA0;Range</th><th>Unit</th></tr><tr><td>Urea nitrogen [Mass/volume] in Blood</td><td>16.8</td><td>7 - 50</td><td></td><td>mg/dL</td></tr></table></div>"
        },
        "status": "final",
        "subject": {
          "reference": "urn:uuid:4fcdf178-f14d-4a34-8a9f-bbd2cdd4603c",
          "display": "Jacob Dörr"
        },
        "effectiveDateTime": "2025-06-21T14:04:28Z"
      }
    },
    {
      "fullUrl": "urn:uuid:fd2d0e4b-6646-42ab-ae17-f462158b7e1b",
      "resource": {
        "resourceType": "Observation",
        "id": "fd2d0e4b-6646-42ab-ae17-f462158b7e1b",
        "meta": {
          "profile": [
            "http://hl7.eu/fhir/laboratory/StructureDefinition/Observation-resultslab-eu-lab"
          ]
        },
        "performer": [
          {
            "display": "The Central European Lab"
          }
        ],
        "category": [
          {
            "coding": [
              {
                "system": "http://terminology.hl7.org/CodeSystem/observation-category",
                "code": "laboratory"
              }
            ]
          }
        ],
        "code": {
          "coding": [
            {
              "code": "38483-4",
              "system": "http://loinc.org",
              "display": "Creatinine [Mass/volume] in Blood"
            }
          ],
          "text": "Creatinine [Mass/volume] in Blood"
        },
        "valueQuantity": {
          "system": "http://unitsofmeasure.org",
          "value": 2.6,
          "unit": "mg/dL",
          "code": "mg/dL"
        },
        "referenceRange": [
          {
            "low": {
              "value": 0.9,
              "code": "mg/dL",
              "system": "http://unitsofmeasure.org"
            }
          },
          {
            "high": {
              "value": 1.3,
              "code": "mg/dL",
              "system": "http://unitsofmeasure.org"
            }
          }
        ],
        "interpretation": [
          {
            "coding": [
              {
                "code": "H",
                "system": "http://terminology.hl7.org/CodeSystem/v3-ObservationInterpretation",
                "display": "High"
              }
            ]
          }
        ],
        "text": {
          "status": "generated",
          "div": "<div xmlns=\"http://www.w3.org/1999/xhtml\"><table class=\"hl7__eu__lab__report\"><tr><th>Test</th><th>21-Jun-2025</th><th>Reference&#xA0;Range</th><th>Unit</th></tr><tr><td>Creatinine [Mass/volume] in Blood</td><td>2.6</td><td>0.9 - 1.3</td><td>H</td><td>mg/dL</td></tr></table></div>"
        },
        "status": "final",
        "subject": {
          "reference": "urn:uuid:4fcdf178-f14d-4a34-8a9f-bbd2cdd4603c",
          "display": "Jacob Dörr"
        },
        "effectiveDateTime": "2025-06-21T14:04:28Z"
      }
    },
    {
      "fullUrl": "urn:uuid:9642696c-cc0e-4773-92c7-472da3051ae4",
      "resource": {
        "resourceType": "Observation",
        "id": "9642696c-cc0e-4773-92c7-472da3051ae4",
        "meta": {
          "profile": [
            "http://hl7.eu/fhir/laboratory/StructureDefinition/Observation-resultslab-eu-lab"
          ]
        },
        "performer": [
          {
            "display": "The Central European Lab"
          }
        ],
        "category": [
          {
            "coding": [
              {
                "system": "http://terminology.hl7.org/CodeSystem/observation-category",
                "code": "laboratory"
              }
            ]
          }
        ],
        "code": {
          "coding": [
            {
              "code": "49765-1",
              "system": "http://loinc.org",
              "display": "Calcium [Mass/volume] in Blood"
            }
          ],
          "text": "Calcium [Mass/volume] in Blood"
        },
        "valueQuantity": {
          "system": "http://unitsofmeasure.org",
          "value": 10,
          "unit": "mg/dL",
          "code": "mg/dL"
        },
        "referenceRange": [
          {
            "low": {
              "value": 8.5,
              "code": "mg/dL",
              "system": "http://unitsofmeasure.org"
            }
          },
          {
            "high": {
              "value": 10.5,
              "code": "mg/dL",
              "system": "http://unitsofmeasure.org"
            }
          }
        ],
        "text": {
          "status": "generated",
          "div": "<div xmlns=\"http://www.w3.org/1999/xhtml\"><table class=\"hl7__eu__lab__report\"><tr><th>Test</th><th>21-Jun-2025</th><th>Reference&#xA0;Range</th><th>Unit</th></tr><tr><td>Calcium [Mass/volume] in Blood</td><td>10.0</td><td>8.5 - 10.5</td><td></td><td>mg/dL</td></tr></table></div>"
        },
        "status": "final",
        "subject": {
          "reference": "urn:uuid:4fcdf178-f14d-4a34-8a9f-bbd2cdd4603c",
          "display": "Jacob Dörr"
        },
        "effectiveDateTime": "2025-06-21T14:04:28Z"
      }
    },
    {
      "fullUrl": "urn:uuid:430ceb29-fd1d-4c44-bb2f-b0e464b9a71a",
      "resource": {
        "resourceType": "Observation",
        "id": "430ceb29-fd1d-4c44-bb2f-b0e464b9a71a",
        "meta": {
          "profile": [
            "http://hl7.eu/fhir/laboratory/StructureDefinition/Observation-resultslab-eu-lab"
          ]
        },
        "performer": [
          {
            "display": "The Central European Lab"
          }
        ],
        "category": [
          {
            "coding": [
              {
                "system": "http://terminology.hl7.org/CodeSystem/observation-category",
                "code": "laboratory"
              }
            ]
          }
        ],
        "code": {
          "coding": [
            {
              "code": "2947-0",
              "system": "http://loinc.org",
              "display": "Sodium [Moles/volume] in Blood"
            }
          ],
          "text": "Sodium [Moles/volume] in Blood"
        },
        "valueQuantity": {
          "system": "http://unitsofmeasure.org",
          "value": 139.1,
          "unit": "mmol/L",
          "code": "mmol/L"
        },
        "referenceRange": [
          {
            "low": {
              "value": 135,
              "code": "mmol/L",
              "system": "http://unitsofmeasure.org"
            }
          },
          {
            "high": {
              "value": 145,
              "code": "mmol/L",
              "system": "http://unitsofmeasure.org"
            }
          }
        ],
        "text": {
          "status": "generated",
          "div": "<div xmlns=\"http://www.w3.org/1999/xhtml\"><table class=\"hl7__eu__lab__report\"><tr><th>Test</th><th>21-Jun-2025</th><th>Reference&#xA0;Range</th><th>Unit</th></tr><tr><td>Sodium [Moles/volume] in Blood</td><td>139.1</td><td>135 - 145</td><td></td><td>mmol/L</td></tr></table></div>"
        },
        "status": "final",
        "subject": {
          "reference": "urn:uuid:4fcdf178-f14d-4a34-8a9f-bbd2cdd4603c",
          "display": "Jacob Dörr"
        },
        "effectiveDateTime": "2025-06-21T14:04:28Z"
      }
    },
    {
      "fullUrl": "urn:uuid:4d04d51e-ba46-4990-883b-d0c1933dc307",
      "resource": {
        "resourceType": "Observation",
        "id": "4d04d51e-ba46-4990-883b-d0c1933dc307",
        "meta": {
          "profile": [
            "http://hl7.eu/fhir/laboratory/StructureDefinition/Observation-resultslab-eu-lab"
          ]
        },
        "performer": [
          {
            "display": "The Central European Lab"
          }
        ],
        "category": [
          {
            "coding": [
              {
                "system": "http://terminology.hl7.org/CodeSystem/observation-category",
                "code": "laboratory"
              }
            ]
          }
        ],
        "code": {
          "coding": [
            {
              "code": "6298-4",
              "system": "http://loinc.org",
              "display": "Potassium [Moles/volume] in Blood"
            }
          ],
          "text": "Potassium [Moles/volume] in Blood"
        },
        "valueQuantity": {
          "system": "http://unitsofmeasure.org",
          "value": 4,
          "unit": "mmol/L",
          "code": "mmol/L"
        },
        "referenceRange": [
          {
            "low": {
              "value": 3.5,
              "code": "mmol/L",
              "system": "http://unitsofmeasure.org"
            }
          },
          {
            "high": {
              "value": 5.3,
              "code": "mmol/L",
              "system": "http://unitsofmeasure.org"
            }
          }
        ],
        "text": {
          "status": "generated",
          "div": "<div xmlns=\"http://www.w3.org/1999/xhtml\"><table class=\"hl7__eu__lab__report\"><tr><th>Test</th><th>21-Jun-2025</th><th>Reference&#xA0;Range</th><th>Unit</th></tr><tr><td>Potassium [Moles/volume] in Blood</td><td>4.0</td><td>3.5 - 5.3</td><td></td><td>mmol/L</td></tr></table></div>"
        },
        "status": "final",
        "subject": {
          "reference": "urn:uuid:4fcdf178-f14d-4a34-8a9f-bbd2cdd4603c",
          "display": "Jacob Dörr"
        },
        "effectiveDateTime": "2025-06-21T14:04:28Z"
      }
    },
    {
      "fullUrl": "urn:uuid:809c4783-3912-443a-82a9-f668b815eca3",
      "resource": {
        "resourceType": "Observation",
        "id": "809c4783-3912-443a-82a9-f668b815eca3",
        "meta": {
          "profile": [
            "http://hl7.eu/fhir/laboratory/StructureDefinition/Observation-resultslab-eu-lab"
          ]
        },
        "performer": [
          {
            "display": "The Central European Lab"
          }
        ],
        "category": [
          {
            "coding": [
              {
                "system": "http://terminology.hl7.org/CodeSystem/observation-category",
                "code": "laboratory"
              }
            ]
          }
        ],
        "code": {
          "coding": [
            {
              "code": "2069-3",
              "system": "http://loinc.org",
              "display": "Chloride [Moles/volume] in Blood"
            }
          ],
          "text": "Chloride [Moles/volume] in Blood"
        },
        "valueQuantity": {
          "system": "http://unitsofmeasure.org",
          "value": 104.9,
          "unit": "mmol/L",
          "code": "mmol/L"
        },
        "referenceRange": [
          {
            "low": {
              "value": 98,
              "code": "mmol/L",
              "system": "http://unitsofmeasure.org"
            }
          },
          {
            "high": {
              "value": 107,
              "code": "mmol/L",
              "system": "http://unitsofmeasure.org"
            }
          }
        ],
        "text": {
          "status": "generated",
          "div": "<div xmlns=\"http://www.w3.org/1999/xhtml\"><table class=\"hl7__eu__lab__report\"><tr><th>Test</th><th>21-Jun-2025</th><th>Reference&#xA0;Range</th><th>Unit</th></tr><tr><td>Chloride [Moles/volume] in Blood</td><td>104.9</td><td>98 - 107</td><td></td><td>mmol/L</td></tr></table></div>"
        },
        "status": "final",
        "subject": {
          "reference": "urn:uuid:4fcdf178-f14d-4a34-8a9f-bbd2cdd4603c",
          "display": "Jacob Dörr"
        },
        "effectiveDateTime": "2025-06-21T14:04:28Z"
      }
    },
    {
      "fullUrl": "urn:uuid:ddf31289-f2b1-4950-9a8d-4f708791a1d0",
      "resource": {
        "resourceType": "Observation",
        "id": "ddf31289-f2b1-4950-9a8d-4f708791a1d0",
        "meta": {
          "profile": [
            "http://hl7.eu/fhir/laboratory/StructureDefinition/Observation-resultslab-eu-lab"
          ]
        },
        "performer": [
          {
            "display": "The Central European Lab"
          }
        ],
        "category": [
          {
            "coding": [
              {
                "system": "http://terminology.hl7.org/CodeSystem/observation-category",
                "code": "laboratory"
              }
            ]
          }
        ],
        "code": {
          "coding": [
            {
              "code": "20565-8",
              "system": "http://loinc.org",
              "display": "Carbon dioxide, total [Moles/volume] in Blood"
            }
          ],
          "text": "Carbon dioxide, total [Moles/volume] in Blood"
        },
        "valueQuantity": {
          "system": "http://unitsofmeasure.org",
          "value": 27.1,
          "unit": "mmol/L",
          "code": "mmol/L"
        },
        "referenceRange": [
          {
            "low": {
              "value": 22,
              "code": "mmol/L",
              "system": "http://unitsofmeasure.org"
            }
          },
          {
            "high": {
              "value": 32,
              "code": "mmol/L",
              "system": "http://unitsofmeasure.org"
            }
          }
        ],
        "text": {
          "status": "generated",
          "div": "<div xmlns=\"http://www.w3.org/1999/xhtml\"><table class=\"hl7__eu__lab__report\"><tr><th>Test</th><th>21-Jun-2025</th><th>Reference&#xA0;Range</th><th>Unit</th></tr><tr><td>Carbon dioxide, total [Moles/volume] in Blood</td><td>27.1</td><td>22 - 32</td><td></td><td>mmol/L</td></tr></table></div>"
        },
        "status": "final",
        "subject": {
          "reference": "urn:uuid:4fcdf178-f14d-4a34-8a9f-bbd2cdd4603c",
          "display": "Jacob Dörr"
        },
        "effectiveDateTime": "2025-06-21T14:04:28Z"
      }
    },
    {
      "fullUrl": "urn:uuid:290daaf0-93ca-49b1-a3b6-ddaaf120011d",
      "resource": {
        "resourceType": "Observation",
        "id": "290daaf0-93ca-49b1-a3b6-ddaaf120011d",
        "meta": {
          "profile": [
            "http://hl7.eu/fhir/laboratory/StructureDefinition/Observation-resultslab-eu-lab"
          ]
        },
        "performer": [
          {
            "display": "The Central European Lab"
          }
        ],
        "category": [
          {
            "coding": [
              {
                "system": "http://terminology.hl7.org/CodeSystem/observation-category",
                "code": "laboratory"
              }
            ]
          }
        ],
        "code": {
          "coding": [
            {
              "code": "2885-2",
              "system": "http://loinc.org",
              "display": "Protein [Mass/volume] in Serum or Plasma"
            }
          ],
          "text": "Protein [Mass/volume] in Serum or Plasma"
        },
        "valueQuantity": {
          "system": "http://unitsofmeasure.org",
          "value": 7.4,
          "unit": "g/dL",
          "code": "g/dL"
        },
        "referenceRange": [
          {
            "low": {
              "value": 6.6,
              "code": "g/dL",
              "system": "http://unitsofmeasure.org"
            }
          },
          {
            "high": {
              "value": 8.3,
              "code": "g/dL",
              "system": "http://unitsofmeasure.org"
            }
          }
        ],
        "text": {
          "status": "generated",
          "div": "<div xmlns=\"http://www.w3.org/1999/xhtml\"><table class=\"hl7__eu__lab__report\"><tr><th>Test</th><th>21-Jun-2025</th><th>Reference&#xA0;Range</th><th>Unit</th></tr><tr><td>Protein [Mass/volume] in Serum or Plasma</td><td>7.4</td><td>6.6 - 8.3</td><td></td><td>g/dL</td></tr></table></div>"
        },
        "status": "final",
        "subject": {
          "reference": "urn:uuid:4fcdf178-f14d-4a34-8a9f-bbd2cdd4603c",
          "display": "Jacob Dörr"
        },
        "effectiveDateTime": "2025-06-21T14:04:28Z"
      }
    },
    {
      "fullUrl": "urn:uuid:7348a300-617f-4590-a3be-bca950b61bfc",
      "resource": {
        "resourceType": "Observation",
        "id": "7348a300-617f-4590-a3be-bca950b61bfc",
        "meta": {
          "profile": [
            "http://hl7.eu/fhir/laboratory/StructureDefinition/Observation-resultslab-eu-lab"
          ]
        },
        "performer": [
          {
            "display": "The Central European Lab"
          }
        ],
        "category": [
          {
            "coding": [
              {
                "system": "http://terminology.hl7.org/CodeSystem/observation-category",
                "code": "laboratory"
              }
            ]
          }
        ],
        "code": {
          "coding": [
            {
              "code": "1751-7",
              "system": "http://loinc.org",
              "display": "Albumin [Mass/volume] in Serum or Plasma"
            }
          ],
          "text": "Albumin [Mass/volume] in Serum or Plasma"
        },
        "valueQuantity": {
          "system": "http://unitsofmeasure.org",
          "value": 4.6,
          "unit": "g/dL",
          "code": "g/dL"
        },
        "referenceRange": [
          {
            "low": {
              "value": 3.5,
              "code": "g/dL",
              "system": "http://unitsofmeasure.org"
            }
          },
          {
            "high": {
              "value": 5.5,
              "code": "g/dL",
              "system": "http://unitsofmeasure.org"
            }
          }
        ],
        "text": {
          "status": "generated",
          "div": "<div xmlns=\"http://www.w3.org/1999/xhtml\"><table class=\"hl7__eu__lab__report\"><tr><th>Test</th><th>21-Jun-2025</th><th>Reference&#xA0;Range</th><th>Unit</th></tr><tr><td>Albumin [Mass/volume] in Serum or Plasma</td><td>4.6</td><td>3.5 - 5.5</td><td></td><td>g/dL</td></tr></table></div>"
        },
        "status": "final",
        "subject": {
          "reference": "urn:uuid:4fcdf178-f14d-4a34-8a9f-bbd2cdd4603c",
          "display": "Jacob Dörr"
        },
        "effectiveDateTime": "2025-06-21T14:04:28Z"
      }
    },
    {
      "fullUrl": "urn:uuid:78de085e-1a24-436e-a377-a21972f5cb60",
      "resource": {
        "resourceType": "Observation",
        "id": "78de085e-1a24-436e-a377-a21972f5cb60",
        "meta": {
          "profile": [
            "http://hl7.eu/fhir/laboratory/StructureDefinition/Observation-resultslab-eu-lab"
          ]
        },
        "performer": [
          {
            "display": "The Central European Lab"
          }
        ],
        "category": [
          {
            "coding": [
              {
                "system": "http://terminology.hl7.org/CodeSystem/observation-category",
                "code": "laboratory"
              }
            ]
          }
        ],
        "code": {
          "coding": [
            {
              "code": "10834-0",
              "system": "http://loinc.org",
              "display": "Globulin [Mass/volume] in Serum by calculation"
            }
          ],
          "text": "Globulin [Mass/volume] in Serum by calculation"
        },
        "valueQuantity": {
          "system": "http://unitsofmeasure.org",
          "value": 2.5,
          "unit": "g/L",
          "code": "g/L"
        },
        "referenceRange": [
          {
            "low": {
              "value": 2,
              "code": "g/L",
              "system": "http://unitsofmeasure.org"
            }
          },
          {
            "high": {
              "value": 3.5,
              "code": "g/L",
              "system": "http://unitsofmeasure.org"
            }
          }
        ],
        "text": {
          "status": "generated",
          "div": "<div xmlns=\"http://www.w3.org/1999/xhtml\"><table class=\"hl7__eu__lab__report\"><tr><th>Test</th><th>21-Jun-2025</th><th>Reference&#xA0;Range</th><th>Unit</th></tr><tr><td>Globulin [Mass/volume] in Serum by calculation</td><td>2.5</td><td>2 - 3.5</td><td></td><td>g/L</td></tr></table></div>"
        },
        "status": "final",
        "subject": {
          "reference": "urn:uuid:4fcdf178-f14d-4a34-8a9f-bbd2cdd4603c",
          "display": "Jacob Dörr"
        },
        "effectiveDateTime": "2025-06-21T14:04:28Z"
      }
    },
    {
      "fullUrl": "urn:uuid:2a52844d-fbb5-46db-b5f8-3d2917c71732",
      "resource": {
        "resourceType": "Observation",
        "id": "2a52844d-fbb5-46db-b5f8-3d2917c71732",
        "meta": {
          "profile": [
            "http://hl7.eu/fhir/laboratory/StructureDefinition/Observation-resultslab-eu-lab"
          ]
        },
        "performer": [
          {
            "display": "The Central European Lab"
          }
        ],
        "category": [
          {
            "coding": [
              {
                "system": "http://terminology.hl7.org/CodeSystem/observation-category",
                "code": "laboratory"
              }
            ]
          }
        ],
        "code": {
          "coding": [
            {
              "code": "1975-2",
              "system": "http://loinc.org",
              "display": "Bilirubin.total [Mass/volume] in Serum or Plasma"
            }
          ],
          "text": "Bilirubin.total [Mass/volume] in Serum or Plasma"
        },
        "valueQuantity": {
          "system": "http://unitsofmeasure.org",
          "value": 1.2,
          "unit": "mg/dL",
          "code": "mg/dL"
        },
        "referenceRange": [
          {
            "low": {
              "value": 0.3,
              "code": "mg/dL",
              "system": "http://unitsofmeasure.org"
            }
          },
          {
            "high": {
              "value": 1.2,
              "code": "mg/dL",
              "system": "http://unitsofmeasure.org"
            }
          }
        ],
        "text": {
          "status": "generated",
          "div": "<div xmlns=\"http://www.w3.org/1999/xhtml\"><table class=\"hl7__eu__lab__report\"><tr><th>Test</th><th>21-Jun-2025</th><th>Reference&#xA0;Range</th><th>Unit</th></tr><tr><td>Bilirubin.total [Mass/volume] in Serum or Plasma</td><td>1.2</td><td>0.3 - 1.2</td><td></td><td>mg/dL</td></tr></table></div>"
        },
        "status": "final",
        "subject": {
          "reference": "urn:uuid:4fcdf178-f14d-4a34-8a9f-bbd2cdd4603c",
          "display": "Jacob Dörr"
        },
        "effectiveDateTime": "2025-06-21T14:04:28Z"
      }
    },
    {
      "fullUrl": "urn:uuid:07ed1158-8a6f-4592-97a6-6d9dad3dfbc4",
      "resource": {
        "resourceType": "Observation",
        "id": "07ed1158-8a6f-4592-97a6-6d9dad3dfbc4",
        "meta": {
          "profile": [
            "http://hl7.eu/fhir/laboratory/StructureDefinition/Observation-resultslab-eu-lab"
          ]
        },
        "performer": [
          {
            "display": "The Central European Lab"
          }
        ],
        "category": [
          {
            "coding": [
              {
                "system": "http://terminology.hl7.org/CodeSystem/observation-category",
                "code": "laboratory"
              }
            ]
          }
        ],
        "code": {
          "coding": [
            {
              "code": "6768-6",
              "system": "http://loinc.org",
              "display": "Alkaline phosphatase [Enzymatic activity/volume] in Serum or Plasma"
            }
          ],
          "text": "Alkaline phosphatase [Enzymatic activity/volume] in Serum or Plasma"
        },
        "valueQuantity": {
          "system": "http://unitsofmeasure.org",
          "value": 81.4,
          "unit": "U/L",
          "code": "U/L"
        },
        "referenceRange": [
          {
            "low": {
              "value": 53,
              "code": "U/L",
              "system": "http://unitsofmeasure.org"
            }
          },
          {
            "high": {
              "value": 130,
              "code": "U/L",
              "system": "http://unitsofmeasure.org"
            }
          }
        ],
        "text": {
          "status": "generated",
          "div": "<div xmlns=\"http://www.w3.org/1999/xhtml\"><table class=\"hl7__eu__lab__report\"><tr><th>Test</th><th>21-Jun-2025</th><th>Reference&#xA0;Range</th><th>Unit</th></tr><tr><td>Alkaline phosphatase [Enzymatic activity/volume] in Serum or Plasma</td><td>81.4</td><td>53 - 130</td><td></td><td>U/L</td></tr></table></div>"
        },
        "status": "final",
        "subject": {
          "reference": "urn:uuid:4fcdf178-f14d-4a34-8a9f-bbd2cdd4603c",
          "display": "Jacob Dörr"
        },
        "effectiveDateTime": "2025-06-21T14:04:28Z"
      }
    },
    {
      "fullUrl": "urn:uuid:d0744484-8990-4122-b193-dde7ad63baed",
      "resource": {
        "resourceType": "Observation",
        "id": "d0744484-8990-4122-b193-dde7ad63baed",
        "meta": {
          "profile": [
            "http://hl7.eu/fhir/laboratory/StructureDefinition/Observation-resultslab-eu-lab"
          ]
        },
        "performer": [
          {
            "display": "The Central European Lab"
          }
        ],
        "category": [
          {
            "coding": [
              {
                "system": "http://terminology.hl7.org/CodeSystem/observation-category",
                "code": "laboratory"
              }
            ]
          }
        ],
        "code": {
          "coding": [
            {
              "code": "1742-6",
              "system": "http://loinc.org",
              "display": "Alanine aminotransferase [Enzymatic activity/volume] in Serum or Plasma"
            }
          ],
          "text": "Alanine aminotransferase [Enzymatic activity/volume] in Serum or Plasma"
        },
        "valueQuantity": {
          "system": "http://unitsofmeasure.org",
          "value": 59.5,
          "unit": "U/L",
          "code": "U/L"
        },
        "referenceRange": [
          {
            "low": {
              "value": 7,
              "code": "U/L",
              "system": "http://unitsofmeasure.org"
            }
          },
          {
            "high": {
              "value": 63,
              "code": "U/L",
              "system": "http://unitsofmeasure.org"
            }
          }
        ],
        "text": {
          "status": "generated",
          "div": "<div xmlns=\"http://www.w3.org/1999/xhtml\"><table class=\"hl7__eu__lab__report\"><tr><th>Test</th><th>21-Jun-2025</th><th>Reference&#xA0;Range</th><th>Unit</th></tr><tr><td>Alanine aminotransferase [Enzymatic activity/volume] in Serum or Plasma</td><td>59.5</td><td>7 - 63</td><td></td><td>U/L</td></tr></table></div>"
        },
        "status": "final",
        "subject": {
          "reference": "urn:uuid:4fcdf178-f14d-4a34-8a9f-bbd2cdd4603c",
          "display": "Jacob Dörr"
        },
        "effectiveDateTime": "2025-06-21T14:04:28Z"
      }
    },
    {
      "fullUrl": "urn:uuid:c2d5a190-cc94-4940-be26-65722a4b598d",
      "resource": {
        "resourceType": "Observation",
        "id": "c2d5a190-cc94-4940-be26-65722a4b598d",
        "meta": {
          "profile": [
            "http://hl7.eu/fhir/laboratory/StructureDefinition/Observation-resultslab-eu-lab"
          ]
        },
        "performer": [
          {
            "display": "The Central European Lab"
          }
        ],
        "category": [
          {
            "coding": [
              {
                "system": "http://terminology.hl7.org/CodeSystem/observation-category",
                "code": "laboratory"
              }
            ]
          }
        ],
        "code": {
          "coding": [
            {
              "code": "1920-8",
              "system": "http://loinc.org",
              "display": "Aspartate aminotransferase [Enzymatic activity/volume] in Serum or Plasma"
            }
          ],
          "text": "Aspartate aminotransferase [Enzymatic activity/volume] in Serum or Plasma"
        },
        "valueQuantity": {
          "system": "http://unitsofmeasure.org",
          "value": 18.3,
          "unit": "U/L",
          "code": "U/L"
        },
        "referenceRange": [
          {
            "low": {
              "value": 10,
              "code": "U/L",
              "system": "http://unitsofmeasure.org"
            }
          },
          {
            "high": {
              "value": 40,
              "code": "U/L",
              "system": "http://unitsofmeasure.org"
            }
          }
        ],
        "text": {
          "status": "generated",
          "div": "<div xmlns=\"http://www.w3.org/1999/xhtml\"><table class=\"hl7__eu__lab__report\"><tr><th>Test</th><th>21-Jun-2025</th><th>Reference&#xA0;Range</th><th>Unit</th></tr><tr><td>Aspartate aminotransferase [Enzymatic activity/volume] in Serum or Plasma</td><td>18.3</td><td>10 - 40</td><td></td><td>U/L</td></tr></table></div>"
        },
        "status": "final",
        "subject": {
          "reference": "urn:uuid:4fcdf178-f14d-4a34-8a9f-bbd2cdd4603c",
          "display": "Jacob Dörr"
        },
        "effectiveDateTime": "2025-06-21T14:04:28Z"
      }
    },
    {
      "fullUrl": "urn:uuid:9b0efd96-c8f5-403a-aa81-c4c77f0897d7",
      "resource": {
        "resourceType": "Observation",
        "id": "9b0efd96-c8f5-403a-aa81-c4c77f0897d7",
        "meta": {
          "profile": [
            "http://hl7.eu/fhir/laboratory/StructureDefinition/Observation-resultslab-eu-lab"
          ]
        },
        "performer": [
          {
            "display": "The Central European Lab"
          }
        ],
        "category": [
          {
            "coding": [
              {
                "system": "http://terminology.hl7.org/CodeSystem/observation-category",
                "code": "laboratory"
              }
            ]
          }
        ],
        "code": {
          "coding": [
            {
              "code": "2093-3",
              "system": "http://loinc.org",
              "display": "Cholesterol [Mass/volume] in Serum or Plasma"
            }
          ],
          "text": "Cholesterol [Mass/volume] in Serum or Plasma"
        },
        "valueQuantity": {
          "system": "http://unitsofmeasure.org",
          "value": 200.7,
          "unit": "mg/dL",
          "code": "mg/dL"
        },
        "referenceRange": [
          {
            "low": {
              "value": 125,
              "code": "mg/dL",
              "system": "http://unitsofmeasure.org"
            }
          },
          {
            "high": {
              "value": 200,
              "code": "mg/dL",
              "system": "http://unitsofmeasure.org"
            }
          }
        ],
        "interpretation": [
          {
            "coding": [
              {
                "code": "H",
                "system": "http://terminology.hl7.org/CodeSystem/v3-ObservationInterpretation",
                "display": "High"
              }
            ]
          }
        ],
        "text": {
          "status": "generated",
          "div": "<div xmlns=\"http://www.w3.org/1999/xhtml\"><table class=\"hl7__eu__lab__report\"><tr><th>Test</th><th>21-Jun-2025</th><th>Reference&#xA0;Range</th><th>Unit</th></tr><tr><td>Cholesterol [Mass/volume] in Serum or Plasma</td><td>200.7</td><td>125 - 200</td><td>H</td><td>mg/dL</td></tr></table></div>"
        },
        "status": "final",
        "subject": {
          "reference": "urn:uuid:4fcdf178-f14d-4a34-8a9f-bbd2cdd4603c",
          "display": "Jacob Dörr"
        },
        "effectiveDateTime": "2025-06-21T14:04:28Z"
      }
    },
    {
      "fullUrl": "urn:uuid:6e7acbea-06b0-46f1-b4bc-2f06780f3dfa",
      "resource": {
        "resourceType": "Observation",
        "id": "6e7acbea-06b0-46f1-b4bc-2f06780f3dfa",
        "meta": {
          "profile": [
            "http://hl7.eu/fhir/laboratory/StructureDefinition/Observation-resultslab-eu-lab"
          ]
        },
        "performer": [
          {
            "display": "The Central European Lab"
          }
        ],
        "category": [
          {
            "coding": [
              {
                "system": "http://terminology.hl7.org/CodeSystem/observation-category",
                "code": "laboratory"
              }
            ]
          }
        ],
        "code": {
          "coding": [
            {
              "code": "2571-8",
              "system": "http://loinc.org",
              "display": "Triglyceride [Mass/volume] in Serum or Plasma"
            }
          ],
          "text": "Triglyceride [Mass/volume] in Serum or Plasma"
        },
        "valueQuantity": {
          "system": "http://unitsofmeasure.org",
          "value": 196.5,
          "unit": "mg/dL",
          "code": "mg/dL"
        },
        "referenceRange": [
          {
            "low": {
              "value": 10,
              "code": "mg/dL",
              "system": "http://unitsofmeasure.org"
            }
          },
          {
            "high": {
              "value": 200,
              "code": "mg/dL",
              "system": "http://unitsofmeasure.org"
            }
          }
        ],
        "text": {
          "status": "generated",
          "div": "<div xmlns=\"http://www.w3.org/1999/xhtml\"><table class=\"hl7__eu__lab__report\"><tr><th>Test</th><th>21-Jun-2025</th><th>Reference&#xA0;Range</th><th>Unit</th></tr><tr><td>Triglyceride [Mass/volume] in Serum or Plasma</td><td>196.5</td><td>10 - 200</td><td></td><td>mg/dL</td></tr></table></div>"
        },
        "status": "final",
        "subject": {
          "reference": "urn:uuid:4fcdf178-f14d-4a34-8a9f-bbd2cdd4603c",
          "display": "Jacob Dörr"
        },
        "effectiveDateTime": "2025-06-21T14:04:28Z"
      }
    },
    {
      "fullUrl": "urn:uuid:e8b08733-0ee0-4251-9b60-3be04ee2aa3f",
      "resource": {
        "resourceType": "Observation",
        "id": "e8b08733-0ee0-4251-9b60-3be04ee2aa3f",
        "meta": {
          "profile": [
            "http://hl7.eu/fhir/laboratory/StructureDefinition/Observation-resultslab-eu-lab"
          ]
        },
        "performer": [
          {
            "display": "The Central European Lab"
          }
        ],
        "category": [
          {
            "coding": [
              {
                "system": "http://terminology.hl7.org/CodeSystem/observation-category",
                "code": "laboratory"
              }
            ]
          }
        ],
        "code": {
          "coding": [
            {
              "code": "18262-6",
              "system": "http://loinc.org",
              "display": "Cholesterol in LDL [Mass/volume] in Serum or Plasma by Direct assay"
            }
          ],
          "text": "Cholesterol in LDL [Mass/volume] in Serum or Plasma by Direct assay"
        },
        "valueQuantity": {
          "system": "http://unitsofmeasure.org",
          "value": 113.9,
          "unit": "mg/dL",
          "code": "mg/dL"
        },
        "referenceRange": [
          {
            "low": {
              "value": 0,
              "code": "mg/dL",
              "system": "http://unitsofmeasure.org"
            }
          },
          {
            "high": {
              "value": 130,
              "code": "mg/dL",
              "system": "http://unitsofmeasure.org"
            }
          }
        ],
        "text": {
          "status": "generated",
          "div": "<div xmlns=\"http://www.w3.org/1999/xhtml\"><table class=\"hl7__eu__lab__report\"><tr><th>Test</th><th>21-Jun-2025</th><th>Reference&#xA0;Range</th><th>Unit</th></tr><tr><td>Cholesterol in LDL [Mass/volume] in Serum or Plasma by Direct assay</td><td>113.9</td><td>0 - 130</td><td></td><td>mg/dL</td></tr></table></div>"
        },
        "status": "final",
        "subject": {
          "reference": "urn:uuid:4fcdf178-f14d-4a34-8a9f-bbd2cdd4603c",
          "display": "Jacob Dörr"
        },
        "effectiveDateTime": "2025-06-21T14:04:28Z"
      }
    },
    {
      "fullUrl": "urn:uuid:d5896cfe-4eb0-4760-aa93-7a36e06d85d6",
      "resource": {
        "resourceType": "Observation",
        "id": "d5896cfe-4eb0-4760-aa93-7a36e06d85d6",
        "meta": {
          "profile": [
            "http://hl7.eu/fhir/laboratory/StructureDefinition/Observation-resultslab-eu-lab"
          ]
        },
        "performer": [
          {
            "display": "The Central European Lab"
          }
        ],
        "category": [
          {
            "coding": [
              {
                "system": "http://terminology.hl7.org/CodeSystem/observation-category",
                "code": "laboratory"
              }
            ]
          }
        ],
        "code": {
          "coding": [
            {
              "code": "2085-9",
              "system": "http://loinc.org",
              "display": "Cholesterol in HDL [Mass/volume] in Serum or Plasma"
            }
          ],
          "text": "Cholesterol in HDL [Mass/volume] in Serum or Plasma"
        },
        "valueQuantity": {
          "system": "http://unitsofmeasure.org",
          "value": 56.7,
          "unit": "mg/dL",
          "code": "mg/dL"
        },
        "referenceRange": [
          {
            "low": {
              "value": 40,
              "code": "mg/dL",
              "system": "http://unitsofmeasure.org"
            }
          },
          {
            "high": {
              "value": 100,
              "code": "mg/dL",
              "system": "http://unitsofmeasure.org"
            }
          }
        ],
        "text": {
          "status": "generated",
          "div": "<div xmlns=\"http://www.w3.org/1999/xhtml\"><table class=\"hl7__eu__lab__report\"><tr><th>Test</th><th>21-Jun-2025</th><th>Reference&#xA0;Range</th><th>Unit</th></tr><tr><td>Cholesterol in HDL [Mass/volume] in Serum or Plasma</td><td>56.7</td><td>40 - 100</td><td></td><td>mg/dL</td></tr></table></div>"
        },
        "status": "final",
        "subject": {
          "reference": "urn:uuid:4fcdf178-f14d-4a34-8a9f-bbd2cdd4603c",
          "display": "Jacob Dörr"
        },
        "effectiveDateTime": "2025-06-21T14:04:28Z"
      }
    },
    {
      "fullUrl": "urn:uuid:7a6a03a9-7e94-4446-99b4-9c9513200dea",
      "resource": {
        "resourceType": "DeviceUseStatement",
        "id": "7a6a03a9-7e94-4446-99b4-9c9513200dea",
        "meta": {
          "profile": [
            "http://hl7.eu/fhir/eps/StructureDefinition/deviceUseStatement-eu-eps"
          ]
        },
        "timingPeriod": {
          "start": "1983-02-04"
        },
        "text": {
          "status": "generated",
          "div": "<div xmlns=\"http://www.w3.org/1999/xhtml\"><table class=\"hl7__ips\"><tr><td>Blood glucose meter (physical object)</td><td><span class=\"nb\">04-Feb-1983</span></td></tr></table></div>"
        },
        "status": "active",
        "device": {
          "reference": "urn:uuid:62a50334-b15f-40af-8d6c-8fc15988f7c8",
          "display": "Blood glucose meter (physical object)"
        },
        "subject": {
          "reference": "urn:uuid:4fcdf178-f14d-4a34-8a9f-bbd2cdd4603c",
          "display": "Jacob Dörr"
        }
      }
    },
    {
      "fullUrl": "urn:uuid:62a50334-b15f-40af-8d6c-8fc15988f7c8",
      "resource": {
        "resourceType": "Device",
        "id": "62a50334-b15f-40af-8d6c-8fc15988f7c8",
        "meta": {
          "profile": [
            "http://hl7.eu/fhir/eps/StructureDefinition/device-eu-eps"
          ]
        },
        "udiCarrier": [
          {
            "id": "(01)33313221470630(11)830114(17)080129(10)1564800284201(21)8384522056650"
          }
        ],
        "status": "active",
        "patient": {
          "reference": "urn:uuid:4fcdf178-f14d-4a34-8a9f-bbd2cdd4603c",
          "display": "Jacob Dörr"
        },
        "type": {
          "coding": [
            {
              "code": "337414009",
              "system": "http://snomed.info/sct",
              "display": "Blood glucose meter (physical object)"
            }
          ]
        }
      }
    },
    {
      "fullUrl": "urn:uuid:0da4085b-5f41-48fd-93a8-da00fadb74b3",
      "resource": {
        "resourceType": "Device",
        "id": "0da4085b-5f41-48fd-93a8-da00fadb74b3",
        "deviceName": [
          {
            "name": "SYNDERAI Synthetic Generator",
            "type": "manufacturer-name"
          }
        ],
        "version": [
          {
            "value": "5.0"
          }
        ],
        "text": {
          "status": "generated",
          "div": "<div xmlns=\"http://www.w3.org/1999/xhtml\">SYNDERAI Synthetic Generator v5.0</div>"
        },
        "status": "active",
        "distinctIdentifier": "synderai-generator-50",
        "manufacturer": "SYNDERAI Project"
      }
    },
    {
      "fullUrl": "urn:uuid:2f9c0422-4e32-4579-996c-8eab8b43d171",
      "resource": {
        "resourceType": "Provenance",
        "id": "2f9c0422-4e32-4579-996c-8eab8b43d171",
        "target": [
          {
            "reference": "Patient/4fcdf178-f14d-4a34-8a9f-bbd2cdd4603c"
          },
          {
            "reference": "Bundle/daa6c816-4b1f-43b4-b047-57b13e499e08"
          },
          {
            "reference": "Composition/cad7f172-9ce2-43eb-bf1e-f0edb370b4e3"
          },
          {
            "reference": "PractitionerRole/89bc2394-d603-43f1-b1f8-dc6c75bb8c62"
          },
          {
            "reference": "Organization/4c2d2ecf-72ab-4809-a2f5-127c1a0ff63c"
          },
          {
            "reference": "Practitioner/fe6745fe-ee51-4b95-85b5-f11515db4903"
          }
        ],
        "activity": {
          "text": "Synthetic Example Data Generation"
        },
        "policy": [
          "https://synderai.net/synderai-synthetic-data-policy"
        ],
        "agent": [
          {
            "type": {
              "text": "author"
            },
            "who": {
              "reference": "Device/0da4085b-5f41-48fd-93a8-da00fadb74b3"
            }
          }
        ],
        "reason": [
          {
            "text": "Interoperability Testing and Training (non-clinical use)"
          }
        ],
        "text": {
          "status": "generated",
          "div": "<div xmlns=\"http://www.w3.org/1999/xhtml\">Provenance for SYNDERAI Synthetic Example Data Resource</div>"
        },
        "recorded": "2025-06-21T14:04:28Z"
      }
    }
  ],
  "type": "document",
  "timestamp": "2025-06-21T14:04:28Z"
}
