{
  "resourceType": "Bundle",
  "id": "5c0f738b-15e5-435a-add4-07b82b71ab43",
  "meta": {
    "profile": [
      "http://hl7.eu/fhir/eps/StructureDefinition/bundle-eu-eps"
    ]
  },
  "identifier": {
    "assigner": {
      "display": "HL7 Europe"
    },
    "system": "urn:oid:2.16.840.1.113883.2.51.999",
    "value": "5d35a12a-5700-44f5-9288-54876f8a5dfe"
  },
  "entry": [
    {
      "fullUrl": "urn:uuid:23618d9e-843a-4d25-a8fb-a598dcdc23f6",
      "resource": {
        "resourceType": "Composition",
        "id": "23618d9e-843a-4d25-a8fb-a598dcdc23f6",
        "meta": {
          "security": [
            {
              "system": "http://terminology.hl7.org/CodeSystem/v3-ActReason",
              "code": "HTEST"
            },
            {
              "system": "http://terminology.hl7.org/CodeSystem/v3-ActReason",
              "code": "TRAIN"
            }
          ],
          "tag": [
            {
              "system": "https://synderai.net/fhir/CodeSystem/tags",
              "code": "synthetic",
              "display": "SYNDERAI Synthetic data"
            }
          ],
          "profile": [
            "http://hl7.eu/fhir/eps/StructureDefinition/composition-eu-eps"
          ]
        },
        "identifier": {
          "assigner": {
            "display": "HL7 Europe"
          },
          "system": "urn:oid:2.16.840.1.113883.2.51.999",
          "value": "f3dbc55a-7d75-4cc6-833c-d89cb5c0fb58"
        },
        "type": {
          "coding": [
            {
              "code": "60591-5",
              "system": "http://loinc.org",
              "display": "Patient summary Document"
            }
          ],
          "text": "Patient summary Document"
        },
        "author": [
          {
            "reference": "urn:uuid:40a74df9-5107-4280-bc62-6160072790f9"
          }
        ],
        "section": [
          {
            "text": {
              "status": "generated",
              "div": "<div xmlns=\"http://www.w3.org/1999/xhtml\"><table class=\"hl7__ips\"><tr><th>Condition</th><th>Onset Date</th><th>Status</th></tr><tr><td>Chronic congestive heart failure</td><td><span class=\"nb\">02-Jul-2025</span></td><td>active</td></tr><tr><td>Osteoporosis</td><td><span class=\"nb\">25-Aug-2024</span></td><td>active</td></tr><tr><td>Recurrent rectal polyp</td><td><span class=\"nb\">14-Jun-2020</span></td><td>active</td></tr><tr><td>Polyp of colon</td><td><span class=\"nb\">12-Mar-2019</span></td><td>active</td></tr><tr><td>Prediabetes</td><td><span class=\"nb\">20-Mar-1988</span></td><td>active</td></tr><tr><td>Recurrent urinary tract infection</td><td><span class=\"nb\">27-Apr-1961</span></td><td>active</td></tr></table></div>"
            },
            "entry": [
              {
                "reference": "urn:uuid:ca091e23-1762-4f72-9fd5-2f946063fcdc"
              }
            ],
            "code": {
              "coding": [
                {
                  "system": "http://loinc.org",
                  "code": "11450-4",
                  "display": "Problem list - Reported"
                }
              ]
            },
            "title": "Problem list"
          },
          {
            "text": {
              "status": "generated",
              "div": "<div xmlns=\"http://www.w3.org/1999/xhtml\"><table class=\"hl7__ips\"><tr><td>No known medications</td></tr></table></div>"
            },
            "entry": [
              {
                "reference": "urn:uuid:ce51c461-4e9c-4c0d-a2c0-8741189aed51"
              }
            ],
            "code": {
              "coding": [
                {
                  "system": "http://loinc.org",
                  "code": "10160-0",
                  "display": "History of Medication use Narrative"
                }
              ]
            },
            "title": "Medication list"
          },
          {
            "text": {
              "status": "generated",
              "div": "<div xmlns=\"http://www.w3.org/1999/xhtml\"><table class=\"hl7__ips\"><tr><th>Vaccine</th><th>Date</th></tr><tr><td>Influenza virus antigen only vaccine product</td><td><span class=\"nb\">25-Aug-2024</span></td></tr><tr><td>SARS-CoV-2 mRNA vaccine</td><td><span class=\"nb\">07-Mar-2021</span></td></tr></table></div>"
            },
            "entry": [
              {
                "reference": "urn:uuid:5fa6279f-df73-4599-98bc-05133545ab75"
              }
            ],
            "code": {
              "coding": [
                {
                  "system": "http://loinc.org",
                  "code": "11369-6",
                  "display": "History of Immunization note"
                }
              ]
            },
            "title": "Immunizations list"
          },
          {
            "text": {
              "status": "generated",
              "div": "<div xmlns=\"http://www.w3.org/1999/xhtml\"><table class=\"hl7__ips\"><tr><th>Procedure</th><th>Date</th><th>Reason</th></tr><tr><td>Postoperative care</td><td><span class=\"nb\">29-Jun-2020</span></td><td>Overlapping malignant neoplasm of colon</td></tr><tr><td>Partial resection of colon</td><td><span class=\"nb\">26-Jun-2020</span></td><td>Overlapping malignant neoplasm of colon</td></tr></table></div>"
            },
            "entry": [
              {
                "reference": "urn:uuid:3eff6603-c77c-4e68-b9f5-f29866ab6395"
              }
            ],
            "code": {
              "coding": [
                {
                  "system": "http://loinc.org",
                  "code": "47519-4",
                  "display": "History of Procedures Document"
                }
              ]
            },
            "title": "Procedure History list"
          },
          {
            "text": {
              "status": "generated",
              "div": "<div xmlns=\"http://www.w3.org/1999/xhtml\"><table class=\"hl7__ips\"><tr><th>Allergy/Intolerance</th><th>Onset Date</th><th>Status</th><th>Type</th><th>Reaction</th></tr><tr><td></td><td>?</td><td>active</td><td>?</td><td></td></tr></table></div>"
            },
            "entry": [
              {
                "reference": "urn:uuid:5d400dea-8fc8-4d0a-b1dc-5f3d00a6eccd"
              }
            ],
            "code": {
              "coding": [
                {
                  "system": "http://loinc.org",
                  "code": "48765-2",
                  "display": "Allergies and adverse reactions Document"
                }
              ]
            },
            "title": "Allergies and Intolerances"
          },
          {
            "text": {
              "status": "generated",
              "div": "<div xmlns=\"http://www.w3.org/1999/xhtml\"><table class=\"hl7__ips\"><tr><th>Active Planned Care / Goals</th><th>Start Date</th><th>Reason</th></tr><tr><td>Heart failure self management plan</td><td><span class=\"nb\">16-Jul-2025</span></td><td>Chronic congestive heart failure (disorder)</td></tr><tr><td><ul><li>Patient will monitor and record weight daily to detect early signs of fluid retention.</li><li>Patient will limit daily sodium intake to reduce fluid overload.</li><li>Patient will restrict daily fluid intake to prevent fluid overload.</li><li>Patient will recognize and promptly report symptoms such as increased shortness of breath, swelling, or rapid weight gain.</li><li>Patient will take prescribed heart failure medications as directed without missed doses.</li></ul></td><td></td><td></td></tr><tr><td>Diabetes self management plan</td><td><span class=\"nb\">20-Mar-1988</span></td><td>Prediabetes</td></tr><tr><td><ul><li>Patient will demonstrate improved self-management of prediabetes through lifestyle modifications including diet, physical activity, and regular blood glucose monitoring.</li></ul></td><td></td><td></td></tr><tr><th>Immunization Recommendation</th><th>Due Date</th><th>Reason</th></tr><tr><td>Vaccine product containing only Influenza virus antigen (medicinal product)</td><td><span class=\"nb\">01-Oct-2025</span></td><td>Annual seasonal influenza vaccination</td></tr></table></div>"
            },
            "title": "Care Plan",
            "code": {
              "coding": [
                {
                  "code": "18776-5",
                  "system": "http://loinc.org",
                  "display": "Plan of care note"
                }
              ]
            }
          },
          {
            "text": {
              "status": "generated",
              "div": "<div xmlns=\"http://www.w3.org/1999/xhtml\"><table class=\"hl7__ips\"><tr><th>Vital Signs</th><th>2025-07-02</th><th>2024-08-25</th></tr><tr><td>Body Weight</td><td>74.2 kg</td><td>74.2 kg</td></tr><tr><td>Body Height</td><td>-</td><td>163.2 cm</td></tr><tr><td>Pain severity - 0-10 verbal numeric rating [Score] - Reported</td><td>-</td><td>3 {score}</td></tr><tr><td>Body mass index (BMI) [Ratio]</td><td>-</td><td>27.9 kg/m2</td></tr><tr><td>Diastolic Blood Pressure</td><td>-</td><td>73 mm[Hg]</td></tr><tr><td>Systolic Blood Pressure</td><td>-</td><td>120 mm[Hg]</td></tr><tr><td>Heart rate</td><td>-</td><td>65 /min</td></tr><tr><td>Respiratory rate</td><td>-</td><td>15 /min</td></tr></table></div>"
            },
            "entry": [
              {
                "reference": "urn:uuid:e3a51a82-b692-474b-b697-617c8e437bca"
              }
            ],
            "code": {
              "coding": [
                {
                  "system": "http://loinc.org",
                  "code": "8716-3",
                  "display": "Vital signs note"
                }
              ]
            },
            "title": "Vital Signs"
          },
          {
            "text": {
              "status": "generated",
              "div": "<div xmlns=\"http://www.w3.org/1999/xhtml\"><table class=\"hl7__ips\"><table class=\"hl7__ips\"><thead><tr><th>Recent Lab Observations</th><th>16-JUL-2025</th><th>Reference&#xA0;Range</th><th>Unit</th></tr></thead><tbody><tr><td>Glucose [Mass/volume] in Blood</td><td>95.4</td><td>70 - 140</td><td>mg/dL</td></tr><tr><td>Urea nitrogen [Mass/volume] in Blood</td><td>13.3</td><td>7 - 20</td><td>mg/dL</td></tr><tr><td>Creatinine [Mass/volume] in Blood</td><td>0.8</td><td>0.6 - 1.1</td><td>mg/dL</td></tr><tr><td>Calcium [Mass/volume] in Blood</td><td>8.6</td><td>8.6 - 10.4</td><td>mg/dL</td></tr><tr><td>Sodium [Moles/volume] in Blood</td><td>142.0</td><td>135 - 145</td><td>mmol/L</td></tr><tr><td>Potassium [Moles/volume] in Blood</td><td>4.2</td><td>3.5 - 5.1</td><td>mmol/L</td></tr><tr><td>Chloride [Moles/volume] in Blood</td><td>106.4</td><td>98 - 114</td><td>mmol/L</td></tr><tr><td>Carbon dioxide, total [Moles/volume] in Blood</td><td>25.4</td><td>22 - 32</td><td>mmol/L</td></tr></tbody></table></table></div>"
            },
            "title": "Relevant diagnostic tests/laboratory data",
            "code": {
              "coding": [
                {
                  "code": "30954-2",
                  "system": "http://loinc.org",
                  "display": "Relevant diagnostic tests/laboratory data note"
                }
              ]
            }
          },
          {
            "text": {
              "status": "generated",
              "div": "<div xmlns=\"http://www.w3.org/1999/xhtml\"><table class=\"hl7__ips\"><tr><th>Device</th><th>Date (since)</th></tr><tr><td>Blood glucose meter (physical object)</td><td><span class=\"nb\">20-Mar-1988</span></td></tr></table></div>"
            },
            "entry": [
              {
                "reference": "urn:uuid:1773c33f-7a42-4b9a-b21c-24dde8163225"
              }
            ],
            "code": {
              "coding": [
                {
                  "system": "http://loinc.org",
                  "code": "46264-8",
                  "display": "History of medical device use"
                }
              ]
            },
            "title": "Device Use"
          }
        ],
        "title": "European Patient Summary",
        "status": "final",
        "subject": {
          "reference": "urn:uuid:67275111-8494-43e0-9a1f-b3e3234385ee",
          "display": "Jolanda Valentino"
        },
        "custodian": {
          "reference": "urn:uuid:f20b1e27-4067-4d93-828c-dd506284be62"
        },
        "date": "2025-07-16",
        "confidentiality": "N"
      }
    },
    {
      "fullUrl": "urn:uuid:67275111-8494-43e0-9a1f-b3e3234385ee",
      "resource": {
        "resourceType": "Patient",
        "id": "67275111-8494-43e0-9a1f-b3e3234385ee",
        "meta": {
          "security": [
            {
              "system": "http://terminology.hl7.org/CodeSystem/v3-ActReason",
              "code": "HTEST"
            },
            {
              "system": "http://terminology.hl7.org/CodeSystem/v3-ActReason",
              "code": "TRAIN"
            }
          ],
          "tag": [
            {
              "system": "https://synderai.net/fhir/CodeSystem/tags",
              "code": "synthetic",
              "display": "SYNDERAI Synthetic data"
            }
          ],
          "profile": [
            "http://hl7.eu/fhir/eps/StructureDefinition/patient-eu-eps"
          ]
        },
        "identifier": [
          {
            "type": {
              "coding": [
                {
                  "code": "PT",
                  "system": "http://terminology.hl7.org/CodeSystem/v2-0203"
                }
              ]
            },
            "system": "http://ec.europa.eu/identifier/eci",
            "value": "4430-168549-9"
          },
          {
            "type": {
              "coding": [
                {
                  "code": "MR",
                  "system": "http://terminology.hl7.org/CodeSystem/v2-0203"
                }
              ]
            },
            "system": "http://local.setting.eu/identifier",
            "value": "04b38801-e89b-6aec-0de2-b8113dfc46c0"
          }
        ],
        "name": [
          {
            "given": [
              "Jolanda"
            ],
            "family": "Valentino",
            "text": "Jolanda Valentino"
          }
        ],
        "address": [
          {
            "line": [
              "Canale Greco, 110"
            ],
            "use": "home",
            "type": "physical",
            "postalCode": "39040",
            "city": "Tschötsch",
            "country": "Italy"
          }
        ],
        "telecom": [
          {
            "system": "phone",
            "value": "+39 3515133145"
          }
        ],
        "extension": [
          {
            "url": "http://hl7.org/fhir/StructureDefinition/patient-nationality",
            "valueCodeableConcept": {
              "coding": [
                {
                  "code": "IT",
                  "system": "http://hl7.org/fhir/ValueSet/country"
                }
              ]
            }
          }
        ],
        "text": {
          "status": "generated",
          "div": "<div xmlns=\"http://www.w3.org/1999/xhtml\"><table class=\"hl7__ips\"><tr><td>Jolanda Valentino</td><td>female</td><td>24-Jun-1948</td></tr></table></div>"
        },
        "gender": "female",
        "birthDate": "1948-06-24"
      }
    },
    {
      "fullUrl": "urn:uuid:40a74df9-5107-4280-bc62-6160072790f9",
      "resource": {
        "resourceType": "PractitionerRole",
        "id": "40a74df9-5107-4280-bc62-6160072790f9",
        "meta": {
          "profile": [
            "http://hl7.eu/fhir/base/StructureDefinition/practitionerRole-eu"
          ]
        },
        "text": {
          "status": "generated",
          "div": "<div xmlns=\"http://www.w3.org/1999/xhtml\"><table class=\"hl7__ips\">Provider Role Id 40a74df9-5107-4280-bc62-6160072790f9</table></div>"
        },
        "practitioner": {
          "reference": "urn:uuid:2cb4eb3b-5203-4246-b8fd-b72077e2a057"
        },
        "organization": {
          "reference": "urn:uuid:f20b1e27-4067-4d93-828c-dd506284be62"
        }
      }
    },
    {
      "fullUrl": "urn:uuid:f20b1e27-4067-4d93-828c-dd506284be62",
      "resource": {
        "resourceType": "Organization",
        "id": "f20b1e27-4067-4d93-828c-dd506284be62",
        "meta": {
          "profile": [
            "http://hl7.eu/fhir/base/StructureDefinition/organization-eu"
          ]
        },
        "identifier": [
          {
            "assigner": {
              "display": "HL7 Europe"
            },
            "system": "urn:oid:2.16.840.1.113883.2.51.999",
            "value": "96c402b3-efad-4944-a8d7-827161e0e041"
          }
        ],
        "address": [
          {
            "city": "Merano",
            "postalCode": "39012",
            "country": "Italy"
          }
        ],
        "text": {
          "status": "generated",
          "div": "<div xmlns=\"http://www.w3.org/1999/xhtml\"><table class=\"hl7__ips\">Franz-Tappeiner-Krankenhaus - Ospedale Franz Tappeiner</table></div>"
        },
        "name": "Franz-Tappeiner-Krankenhaus - Ospedale Franz Tappeiner"
      }
    },
    {
      "fullUrl": "urn:uuid:2cb4eb3b-5203-4246-b8fd-b72077e2a057",
      "resource": {
        "resourceType": "Practitioner",
        "id": "2cb4eb3b-5203-4246-b8fd-b72077e2a057",
        "meta": {
          "profile": [
            "http://hl7.eu/fhir/base/StructureDefinition/practitioner-eu"
          ]
        },
        "name": [
          {
            "prefix": [
              "Dr."
            ],
            "given": [
              "Hel"
            ],
            "family": "Ping"
          }
        ],
        "text": {
          "status": "generated",
          "div": "<div xmlns=\"http://www.w3.org/1999/xhtml\"><table class=\"hl7__ips\">Dr. Hel Ping</table></div>"
        }
      }
    },
    {
      "fullUrl": "urn:uuid:ca091e23-1762-4f72-9fd5-2f946063fcdc",
      "resource": {
        "resourceType": "Condition",
        "id": "ca091e23-1762-4f72-9fd5-2f946063fcdc",
        "meta": {
          "profile": [
            "http://hl7.org/fhir/uv/ips/StructureDefinition/Condition-uv-ips"
          ]
        },
        "category": [
          {
            "coding": [
              {
                "code": "problem-list-item",
                "system": "http://terminology.hl7.org/CodeSystem/condition-category",
                "display": "Problem List Item"
              }
            ]
          }
        ],
        "code": {
          "coding": [
            {
              "code": "88805009",
              "system": "http://snomed.info/sct",
              "display": "Chronic congestive heart failure (disorder)"
            }
          ],
          "text": "Chronic congestive heart failure"
        },
        "text": {
          "status": "generated",
          "div": "<div xmlns=\"http://www.w3.org/1999/xhtml\"><table class=\"hl7__ips\"><tr><td>Chronic congestive heart failure</td><td><span class=\"nb\">02-Jul-2025</span></td><td>active</td></tr></table></div>"
        },
        "onsetDateTime": "2025-07-02",
        "subject": {
          "reference": "urn:uuid:67275111-8494-43e0-9a1f-b3e3234385ee",
          "display": "Jolanda Valentino"
        },
        "asserter": {
          "reference": "urn:uuid:40a74df9-5107-4280-bc62-6160072790f9",
          "display": "Franz-Tappeiner-Krankenhaus - Ospedale Franz Tappeiner"
        }
      }
    },
    {
      "fullUrl": "urn:uuid:3e3d599b-f286-4b04-a74c-8881c0b86d66",
      "resource": {
        "resourceType": "Condition",
        "id": "3e3d599b-f286-4b04-a74c-8881c0b86d66",
        "meta": {
          "profile": [
            "http://hl7.org/fhir/uv/ips/StructureDefinition/Condition-uv-ips"
          ]
        },
        "category": [
          {
            "coding": [
              {
                "code": "problem-list-item",
                "system": "http://terminology.hl7.org/CodeSystem/condition-category",
                "display": "Problem List Item"
              }
            ]
          }
        ],
        "code": {
          "coding": [
            {
              "code": "64859006",
              "system": "http://snomed.info/sct",
              "display": "Osteoporosis (disorder)"
            }
          ],
          "text": "Osteoporosis"
        },
        "text": {
          "status": "generated",
          "div": "<div xmlns=\"http://www.w3.org/1999/xhtml\"><table class=\"hl7__ips\"><tr><td>Osteoporosis</td><td><span class=\"nb\">25-Aug-2024</span></td><td>active</td></tr></table></div>"
        },
        "onsetDateTime": "2024-08-25",
        "subject": {
          "reference": "urn:uuid:67275111-8494-43e0-9a1f-b3e3234385ee",
          "display": "Jolanda Valentino"
        },
        "asserter": {
          "reference": "urn:uuid:40a74df9-5107-4280-bc62-6160072790f9",
          "display": "Franz-Tappeiner-Krankenhaus - Ospedale Franz Tappeiner"
        }
      }
    },
    {
      "fullUrl": "urn:uuid:d844d680-d8aa-464e-a68a-deae3760f052",
      "resource": {
        "resourceType": "Condition",
        "id": "d844d680-d8aa-464e-a68a-deae3760f052",
        "meta": {
          "profile": [
            "http://hl7.org/fhir/uv/ips/StructureDefinition/Condition-uv-ips"
          ]
        },
        "category": [
          {
            "coding": [
              {
                "code": "problem-list-item",
                "system": "http://terminology.hl7.org/CodeSystem/condition-category",
                "display": "Problem List Item"
              }
            ]
          }
        ],
        "code": {
          "coding": [
            {
              "code": "713197008",
              "system": "http://snomed.info/sct",
              "display": "Recurrent rectal polyp (disorder)"
            }
          ],
          "text": "Recurrent rectal polyp"
        },
        "text": {
          "status": "generated",
          "div": "<div xmlns=\"http://www.w3.org/1999/xhtml\"><table class=\"hl7__ips\"><tr><td>Recurrent rectal polyp</td><td><span class=\"nb\">14-Jun-2020</span></td><td>active</td></tr></table></div>"
        },
        "onsetDateTime": "2020-06-14",
        "subject": {
          "reference": "urn:uuid:67275111-8494-43e0-9a1f-b3e3234385ee",
          "display": "Jolanda Valentino"
        },
        "asserter": {
          "reference": "urn:uuid:40a74df9-5107-4280-bc62-6160072790f9",
          "display": "Franz-Tappeiner-Krankenhaus - Ospedale Franz Tappeiner"
        }
      }
    },
    {
      "fullUrl": "urn:uuid:3ad9b8a8-49bb-4447-bca9-094a56369376",
      "resource": {
        "resourceType": "Condition",
        "id": "3ad9b8a8-49bb-4447-bca9-094a56369376",
        "meta": {
          "profile": [
            "http://hl7.org/fhir/uv/ips/StructureDefinition/Condition-uv-ips"
          ]
        },
        "category": [
          {
            "coding": [
              {
                "code": "problem-list-item",
                "system": "http://terminology.hl7.org/CodeSystem/condition-category",
                "display": "Problem List Item"
              }
            ]
          }
        ],
        "code": {
          "coding": [
            {
              "code": "68496003",
              "system": "http://snomed.info/sct",
              "display": "Polyp of colon (disorder)"
            }
          ],
          "text": "Polyp of colon"
        },
        "text": {
          "status": "generated",
          "div": "<div xmlns=\"http://www.w3.org/1999/xhtml\"><table class=\"hl7__ips\"><tr><td>Polyp of colon</td><td><span class=\"nb\">12-Mar-2019</span></td><td>active</td></tr></table></div>"
        },
        "onsetDateTime": "2019-03-12",
        "subject": {
          "reference": "urn:uuid:67275111-8494-43e0-9a1f-b3e3234385ee",
          "display": "Jolanda Valentino"
        },
        "asserter": {
          "reference": "urn:uuid:40a74df9-5107-4280-bc62-6160072790f9",
          "display": "Franz-Tappeiner-Krankenhaus - Ospedale Franz Tappeiner"
        }
      }
    },
    {
      "fullUrl": "urn:uuid:930115c0-695f-4c5b-84ed-0c92775970bf",
      "resource": {
        "resourceType": "Condition",
        "id": "930115c0-695f-4c5b-84ed-0c92775970bf",
        "meta": {
          "profile": [
            "http://hl7.org/fhir/uv/ips/StructureDefinition/Condition-uv-ips"
          ]
        },
        "category": [
          {
            "coding": [
              {
                "code": "problem-list-item",
                "system": "http://terminology.hl7.org/CodeSystem/condition-category",
                "display": "Problem List Item"
              }
            ]
          }
        ],
        "code": {
          "coding": [
            {
              "code": "15777000",
              "system": "http://snomed.info/sct",
              "display": "Prediabetes (disorder)"
            }
          ],
          "text": "Prediabetes"
        },
        "text": {
          "status": "generated",
          "div": "<div xmlns=\"http://www.w3.org/1999/xhtml\"><table class=\"hl7__ips\"><tr><td>Prediabetes</td><td><span class=\"nb\">20-Mar-1988</span></td><td>active</td></tr></table></div>"
        },
        "onsetDateTime": "1988-03-20",
        "subject": {
          "reference": "urn:uuid:67275111-8494-43e0-9a1f-b3e3234385ee",
          "display": "Jolanda Valentino"
        },
        "asserter": {
          "reference": "urn:uuid:40a74df9-5107-4280-bc62-6160072790f9",
          "display": "Franz-Tappeiner-Krankenhaus - Ospedale Franz Tappeiner"
        }
      }
    },
    {
      "fullUrl": "urn:uuid:e7d3605b-07e9-4b0d-ba8b-b99d7773cb9c",
      "resource": {
        "resourceType": "Condition",
        "id": "e7d3605b-07e9-4b0d-ba8b-b99d7773cb9c",
        "meta": {
          "profile": [
            "http://hl7.org/fhir/uv/ips/StructureDefinition/Condition-uv-ips"
          ]
        },
        "category": [
          {
            "coding": [
              {
                "code": "problem-list-item",
                "system": "http://terminology.hl7.org/CodeSystem/condition-category",
                "display": "Problem List Item"
              }
            ]
          }
        ],
        "code": {
          "coding": [
            {
              "code": "197927001",
              "system": "http://snomed.info/sct",
              "display": "Recurrent urinary tract infection (disorder)"
            }
          ],
          "text": "Recurrent urinary tract infection"
        },
        "text": {
          "status": "generated",
          "div": "<div xmlns=\"http://www.w3.org/1999/xhtml\"><table class=\"hl7__ips\"><tr><td>Recurrent urinary tract infection</td><td><span class=\"nb\">27-Apr-1961</span></td><td>active</td></tr></table></div>"
        },
        "onsetDateTime": "1961-04-27",
        "subject": {
          "reference": "urn:uuid:67275111-8494-43e0-9a1f-b3e3234385ee",
          "display": "Jolanda Valentino"
        },
        "asserter": {
          "reference": "urn:uuid:40a74df9-5107-4280-bc62-6160072790f9",
          "display": "Franz-Tappeiner-Krankenhaus - Ospedale Franz Tappeiner"
        }
      }
    },
    {
      "fullUrl": "urn:uuid:be18697c-2c78-40c0-9c69-37f55f930cf9",
      "resource": {
        "resourceType": "Condition",
        "id": "be18697c-2c78-40c0-9c69-37f55f930cf9",
        "meta": {
          "profile": [
            "http://hl7.org/fhir/uv/ips/StructureDefinition/Condition-uv-ips"
          ]
        },
        "category": [
          {
            "coding": [
              {
                "code": "problem-list-item",
                "system": "http://terminology.hl7.org/CodeSystem/condition-category",
                "display": "Problem List Item"
              }
            ]
          }
        ],
        "code": {
          "coding": [
            {
              "code": "10509002",
              "system": "http://snomed.info/sct",
              "display": "Acute bronchitis (disorder)"
            }
          ],
          "text": "Acute bronchitis"
        },
        "text": {
          "status": "generated",
          "div": "<div xmlns=\"http://www.w3.org/1999/xhtml\"><table class=\"hl7__ips\"><tr><td><span class=\"grayedout\">Acute bronchitis</span></td><td><span class=\"nb\">14-Nov-2023 - 30-Nov-2023</span></td><td><span class=\"grayedout\">inactive</span></td></tr></table></div>"
        },
        "onsetDateTime": "2023-11-14",
        "abatementDateTime": "2023-11-30",
        "subject": {
          "reference": "urn:uuid:67275111-8494-43e0-9a1f-b3e3234385ee",
          "display": "Jolanda Valentino"
        },
        "asserter": {
          "reference": "urn:uuid:40a74df9-5107-4280-bc62-6160072790f9",
          "display": "Franz-Tappeiner-Krankenhaus - Ospedale Franz Tappeiner"
        }
      }
    },
    {
      "fullUrl": "urn:uuid:f1c1f648-5f75-4efc-a7cf-c0b8ade5534b",
      "resource": {
        "resourceType": "Condition",
        "id": "f1c1f648-5f75-4efc-a7cf-c0b8ade5534b",
        "meta": {
          "profile": [
            "http://hl7.org/fhir/uv/ips/StructureDefinition/Condition-uv-ips"
          ]
        },
        "category": [
          {
            "coding": [
              {
                "code": "problem-list-item",
                "system": "http://terminology.hl7.org/CodeSystem/condition-category",
                "display": "Problem List Item"
              }
            ]
          }
        ],
        "code": {
          "coding": [
            {
              "code": "444814009",
              "system": "http://snomed.info/sct",
              "display": "Viral sinusitis (disorder)"
            }
          ],
          "text": "Viral sinusitis"
        },
        "text": {
          "status": "generated",
          "div": "<div xmlns=\"http://www.w3.org/1999/xhtml\"><table class=\"hl7__ips\"><tr><td><span class=\"grayedout\">Viral sinusitis</span></td><td><span class=\"nb\">13-Jul-2021 - 04-Aug-2021</span></td><td><span class=\"grayedout\">inactive</span></td></tr></table></div>"
        },
        "onsetDateTime": "2021-07-13",
        "abatementDateTime": "2021-08-04",
        "subject": {
          "reference": "urn:uuid:67275111-8494-43e0-9a1f-b3e3234385ee",
          "display": "Jolanda Valentino"
        },
        "asserter": {
          "reference": "urn:uuid:40a74df9-5107-4280-bc62-6160072790f9",
          "display": "Franz-Tappeiner-Krankenhaus - Ospedale Franz Tappeiner"
        }
      }
    },
    {
      "fullUrl": "urn:uuid:e285db97-8e53-424e-9a7b-abde5588b8ae",
      "resource": {
        "resourceType": "Condition",
        "id": "e285db97-8e53-424e-9a7b-abde5588b8ae",
        "meta": {
          "profile": [
            "http://hl7.org/fhir/uv/ips/StructureDefinition/Condition-uv-ips"
          ]
        },
        "category": [
          {
            "coding": [
              {
                "code": "problem-list-item",
                "system": "http://terminology.hl7.org/CodeSystem/condition-category",
                "display": "Problem List Item"
              }
            ]
          }
        ],
        "code": {
          "coding": [
            {
              "code": "109838007",
              "system": "http://snomed.info/sct",
              "display": "Overlapping malignant neoplasm of colon (disorder)"
            }
          ],
          "text": "Overlapping malignant neoplasm of colon"
        },
        "text": {
          "status": "generated",
          "div": "<div xmlns=\"http://www.w3.org/1999/xhtml\"><table class=\"hl7__ips\"><tr><td><span class=\"grayedout\">Overlapping malignant neoplasm of colon</span></td><td><span class=\"nb\">19-Jun-2020 - 18-Oct-2021</span></td><td><span class=\"grayedout\">inactive</span></td></tr></table></div>"
        },
        "onsetDateTime": "2020-06-19",
        "abatementDateTime": "2021-10-18",
        "subject": {
          "reference": "urn:uuid:67275111-8494-43e0-9a1f-b3e3234385ee",
          "display": "Jolanda Valentino"
        },
        "asserter": {
          "reference": "urn:uuid:40a74df9-5107-4280-bc62-6160072790f9",
          "display": "Franz-Tappeiner-Krankenhaus - Ospedale Franz Tappeiner"
        }
      }
    },
    {
      "fullUrl": "urn:uuid:67b6316c-32bb-4de1-80b3-31ff34300a86",
      "resource": {
        "resourceType": "Condition",
        "id": "67b6316c-32bb-4de1-80b3-31ff34300a86",
        "meta": {
          "profile": [
            "http://hl7.org/fhir/uv/ips/StructureDefinition/Condition-uv-ips"
          ]
        },
        "category": [
          {
            "coding": [
              {
                "code": "problem-list-item",
                "system": "http://terminology.hl7.org/CodeSystem/condition-category",
                "display": "Problem List Item"
              }
            ]
          }
        ],
        "code": {
          "coding": [
            {
              "code": "195662009",
              "system": "http://snomed.info/sct",
              "display": "Acute viral pharyngitis (disorder)"
            }
          ],
          "text": "Acute viral pharyngitis"
        },
        "text": {
          "status": "generated",
          "div": "<div xmlns=\"http://www.w3.org/1999/xhtml\"><table class=\"hl7__ips\"><tr><td><span class=\"grayedout\">Acute viral pharyngitis</span></td><td><span class=\"nb\">17-Jul-2016 - 28-Jul-2016</span></td><td><span class=\"grayedout\">inactive</span></td></tr></table></div>"
        },
        "onsetDateTime": "2016-07-17",
        "abatementDateTime": "2016-07-28",
        "subject": {
          "reference": "urn:uuid:67275111-8494-43e0-9a1f-b3e3234385ee",
          "display": "Jolanda Valentino"
        },
        "asserter": {
          "reference": "urn:uuid:40a74df9-5107-4280-bc62-6160072790f9",
          "display": "Franz-Tappeiner-Krankenhaus - Ospedale Franz Tappeiner"
        }
      }
    },
    {
      "fullUrl": "urn:uuid:ce51c461-4e9c-4c0d-a2c0-8741189aed51",
      "resource": {
        "resourceType": "MedicationStatement",
        "id": "ce51c461-4e9c-4c0d-a2c0-8741189aed51",
        "meta": {
          "profile": [
            "http://hl7.eu/fhir/eps/StructureDefinition/MedicationStatement-eu-eps"
          ]
        },
        "effectivePeriod": {
          "extension": [
            {
              "url": "http://hl7.org/fhir/StructureDefinition/data-absent-reason",
              "valueCode": "unknown"
            }
          ]
        },
        "status": "active",
        "medicationCodeableConcept": {
          "coding": [
            {
              "code": "787481004",
              "system": "http://snomed.info/sct",
              "display": "No known medications (situation)"
            }
          ]
        },
        "subject": {
          "reference": "urn:uuid:67275111-8494-43e0-9a1f-b3e3234385ee",
          "display": "Jolanda Valentino"
        }
      }
    },
    {
      "fullUrl": "urn:uuid:5fa6279f-df73-4599-98bc-05133545ab75",
      "resource": {
        "resourceType": "Immunization",
        "id": "5fa6279f-df73-4599-98bc-05133545ab75",
        "meta": {
          "profile": [
            "http://hl7.org/fhir/uv/ips/StructureDefinition/Immunization-uv-ips"
          ]
        },
        "vaccineCode": {
          "coding": [
            {
              "code": "1181000221105",
              "system": "http://snomed.info/sct",
              "display": "Vaccine product containing Influenza virus antigen"
            },
            {
              "code": "J07BB02",
              "system": "http://www.whocc.no/atc",
              "display": "Influenza, inactivated, split virus"
            }
          ],
          "text": "Influenza virus antigen only vaccine product"
        },
        "site": {
          "coding": [
            {
              "code": "244979005",
              "system": "http://snomed.info/sct",
              "display": "Entire muscle of upper arm"
            }
          ],
          "text": "Entire muscle of upper arm"
        },
        "route": {
          "coding": [
            {
              "code": "78421000",
              "system": "http://snomed.info/sct",
              "display": "Intramuscular route"
            }
          ],
          "text": "Intramuscular route"
        },
        "text": {
          "status": "generated",
          "div": "<div xmlns=\"http://www.w3.org/1999/xhtml\"><table class=\"hl7__ips\"><tr><td>Influenza virus antigen only vaccine product</td><td><span class=\"nb\">25-Aug-2024</span></td></tr></table></div>"
        },
        "status": "completed",
        "patient": {
          "reference": "urn:uuid:67275111-8494-43e0-9a1f-b3e3234385ee",
          "display": "Jolanda Valentino"
        },
        "occurrenceDateTime": "2024-08-25",
        "lotNumber": "XZ-jY2y44jfQ",
        "expirationDate": "2024-10-20"
      }
    },
    {
      "fullUrl": "urn:uuid:958d197e-de7d-4318-8606-2a1bf9589ac0",
      "resource": {
        "resourceType": "Immunization",
        "id": "958d197e-de7d-4318-8606-2a1bf9589ac0",
        "meta": {
          "profile": [
            "http://hl7.org/fhir/uv/ips/StructureDefinition/Immunization-uv-ips"
          ]
        },
        "vaccineCode": {
          "coding": [
            {
              "code": "1119349007",
              "system": "http://snomed.info/sct",
              "display": "Vaccine product containing SARS-CoV-2 mRNA"
            },
            {
              "code": "J07BX03",
              "system": "http://www.whocc.no/atc",
              "display": "COVID-19 mRNA vaccines"
            }
          ],
          "text": "SARS-CoV-2 mRNA vaccine"
        },
        "site": {
          "coding": [
            {
              "code": "244979005",
              "system": "http://snomed.info/sct",
              "display": "Entire muscle of upper arm"
            }
          ],
          "text": "Entire muscle of upper arm"
        },
        "route": {
          "coding": [
            {
              "code": "78421000",
              "system": "http://snomed.info/sct",
              "display": "Intramuscular route"
            }
          ],
          "text": "Intramuscular route"
        },
        "text": {
          "status": "generated",
          "div": "<div xmlns=\"http://www.w3.org/1999/xhtml\"><table class=\"hl7__ips\"><tr><td>SARS-CoV-2 mRNA vaccine</td><td><span class=\"nb\">07-Mar-2021</span></td></tr></table></div>"
        },
        "status": "completed",
        "patient": {
          "reference": "urn:uuid:67275111-8494-43e0-9a1f-b3e3234385ee",
          "display": "Jolanda Valentino"
        },
        "occurrenceDateTime": "2021-03-07",
        "lotNumber": "YK-kkAaoqD",
        "expirationDate": "2022-03-10"
      }
    },
    {
      "fullUrl": "urn:uuid:3eff6603-c77c-4e68-b9f5-f29866ab6395",
      "resource": {
        "resourceType": "Procedure",
        "id": "3eff6603-c77c-4e68-b9f5-f29866ab6395",
        "meta": {
          "profile": [
            "http://hl7.org/fhir/uv/ips/StructureDefinition/Procedure-uv-ips"
          ]
        },
        "code": {
          "coding": [
            {
              "code": "133899007",
              "system": "http://snomed.info/sct",
              "display": "Postoperative care (regime/therapy)"
            }
          ],
          "text": "Postoperative care"
        },
        "reasonCode": [
          {
            "coding": [
              {
                "code": "109838007",
                "system": "http://snomed.info/sct",
                "display": "Overlapping malignant neoplasm of colon"
              }
            ]
          }
        ],
        "text": {
          "status": "generated",
          "div": "<div xmlns=\"http://www.w3.org/1999/xhtml\"><table class=\"hl7__ips\"><tr><td>Postoperative care</td><td><span class=\"nb\">29-Jun-2020</span></td><td>Overlapping malignant neoplasm of colon</td></tr></table></div>"
        },
        "status": "completed",
        "performedDateTime": "2020-06-29",
        "subject": {
          "reference": "urn:uuid:67275111-8494-43e0-9a1f-b3e3234385ee",
          "display": "Jolanda Valentino"
        }
      }
    },
    {
      "fullUrl": "urn:uuid:eeaf1d1a-8ab3-45a7-ac09-8e34e1d066c2",
      "resource": {
        "resourceType": "Procedure",
        "id": "eeaf1d1a-8ab3-45a7-ac09-8e34e1d066c2",
        "meta": {
          "profile": [
            "http://hl7.org/fhir/uv/ips/StructureDefinition/Procedure-uv-ips"
          ]
        },
        "code": {
          "coding": [
            {
              "code": "43075005",
              "system": "http://snomed.info/sct",
              "display": "Partial resection of colon"
            }
          ],
          "text": "Partial resection of colon"
        },
        "reasonCode": [
          {
            "coding": [
              {
                "code": "109838007",
                "system": "http://snomed.info/sct",
                "display": "Overlapping malignant neoplasm of colon"
              }
            ]
          }
        ],
        "text": {
          "status": "generated",
          "div": "<div xmlns=\"http://www.w3.org/1999/xhtml\"><table class=\"hl7__ips\"><tr><td>Partial resection of colon</td><td><span class=\"nb\">26-Jun-2020</span></td><td>Overlapping malignant neoplasm of colon</td></tr></table></div>"
        },
        "status": "completed",
        "performedDateTime": "2020-06-26",
        "subject": {
          "reference": "urn:uuid:67275111-8494-43e0-9a1f-b3e3234385ee",
          "display": "Jolanda Valentino"
        }
      }
    },
    {
      "fullUrl": "urn:uuid:5d400dea-8fc8-4d0a-b1dc-5f3d00a6eccd",
      "resource": {
        "resourceType": "AllergyIntolerance",
        "id": "5d400dea-8fc8-4d0a-b1dc-5f3d00a6eccd",
        "meta": {
          "profile": [
            "http://hl7.eu/fhir/base/StructureDefinition/allergyIntolerance-eu-core"
          ]
        },
        "code": {
          "text": ""
        },
        "clinicalStatus": {
          "coding": [
            {
              "code": "active",
              "system": "http://terminology.hl7.org/CodeSystem/allergyintolerance-clinical"
            }
          ]
        },
        "text": {
          "status": "generated",
          "div": "<div xmlns=\"http://www.w3.org/1999/xhtml\"><table class=\"hl7__ips\"><tr><th>Allergy/Intolerance</th><th>Onset Date</th><th>Status</th><th>Type</th><th>Reaction</th></tr><tr><td></td><td>?</td><td>active</td><td>?</td><td></td></tr></table></div>"
        },
        "verificationStatus": {
          "coding": [
            {
              "code": "confirmed",
              "system": "http://terminology.hl7.org/CodeSystem/allergyintolerance-verification"
            }
          ]
        },
        "patient": {
          "reference": "urn:uuid:67275111-8494-43e0-9a1f-b3e3234385ee",
          "display": "Jolanda Valentino"
        },
        "_onsetDateTime": {
          "extension": [
            {
              "url": "http://hl7.org/fhir/StructureDefinition/data-absent-reason",
              "valueCode": "unknown"
            }
          ]
        }
      }
    },
    {
      "fullUrl": "urn:uuid:9fbb6e20-08d1-4fff-b650-282d3ab2e8fd",
      "resource": {
        "resourceType": "CarePlan",
        "id": "9fbb6e20-08d1-4fff-b650-282d3ab2e8fd",
        "category": [
          {
            "coding": [
              {
                "code": "assess-plan",
                "system": "http://terminology.hl7.org/CodeSystem/care-plan-category",
                "display": "Assessment and Plan"
              }
            ]
          }
        ],
        "activity": [
          {
            "detail": {
              "code": {
                "coding": [
                  {
                    "code": "735984001",
                    "system": "http://snomed.info/sct",
                    "display": "Heart failure self management plan (record artifact)"
                  }
                ]
              },
              "reasonCode": [
                {
                  "coding": [
                    {
                      "code": "88805009",
                      "system": "http://snomed.info/sct",
                      "display": "Chronic congestive heart failure (disorder)"
                    }
                  ]
                }
              ],
              "status": "unknown",
              "description": "Heart failure self management plan",
              "kind": "Appointment"
            }
          }
        ],
        "period": {
          "start": "2025-07-16"
        },
        "goal": [
          {
            "reference": "urn:uuid:768913c2-ec1a-4c7c-8705-6f1bcb0d7e2f"
          },
          {
            "reference": "urn:uuid:2d04aa58-8b22-4398-a217-5fcce86a6add"
          },
          {
            "reference": "urn:uuid:5ca9052d-bce9-4a0e-b8a5-6a20515db461"
          },
          {
            "reference": "urn:uuid:f1b9b852-cfd3-409e-b380-4396c704088d"
          },
          {
            "reference": "urn:uuid:2c88dfc1-1090-4e27-b44a-396b8f414765"
          }
        ],
        "text": {
          "status": "generated",
          "div": "<div xmlns=\"http://www.w3.org/1999/xhtml\"><table class=\"hl7__ips first25\"><tr><th>Active Planned Care / Goals</th><th>Start Date</th><th>Reason</th></tr><tr><td>Heart failure self management plan</td><td><span class=\"nb\">16-Jul-2025</span></td><td>Chronic congestive heart failure (disorder)</td></tr><tr><td><ul><li>Patient will monitor and record weight daily to detect early signs of fluid retention.</li><li>Patient will limit daily sodium intake to reduce fluid overload.</li><li>Patient will restrict daily fluid intake to prevent fluid overload.</li><li>Patient will recognize and promptly report symptoms such as increased shortness of breath, swelling, or rapid weight gain.</li><li>Patient will take prescribed heart failure medications as directed without missed doses.</li></ul></td><td></td><td></td></tr></table></div>"
        },
        "status": "active",
        "intent": "plan",
        "subject": {
          "reference": "urn:uuid:67275111-8494-43e0-9a1f-b3e3234385ee",
          "display": "Jolanda Valentino"
        }
      }
    },
    {
      "fullUrl": "urn:uuid:268b5e1d-5ab1-4c78-a2de-beead5d4dc8b",
      "resource": {
        "resourceType": "CarePlan",
        "id": "268b5e1d-5ab1-4c78-a2de-beead5d4dc8b",
        "category": [
          {
            "coding": [
              {
                "code": "assess-plan",
                "system": "http://terminology.hl7.org/CodeSystem/care-plan-category",
                "display": "Assessment and Plan"
              }
            ]
          }
        ],
        "activity": [
          {
            "detail": {
              "code": {
                "coding": [
                  {
                    "code": "698360004",
                    "system": "http://snomed.info/sct",
                    "display": "Diabetes self management plan (qualifier value)"
                  }
                ]
              },
              "reasonCode": [
                {
                  "coding": [
                    {
                      "code": "15777000",
                      "system": "http://snomed.info/sct",
                      "display": "Prediabetes"
                    }
                  ]
                }
              ],
              "status": "unknown",
              "description": "Diabetes self management plan",
              "kind": "Appointment"
            }
          }
        ],
        "period": {
          "start": "1988-03-20"
        },
        "goal": [
          {
            "reference": "urn:uuid:e7e27dbb-6b1e-4299-9f6b-a7dbfffb2acd"
          }
        ],
        "text": {
          "status": "generated",
          "div": "<div xmlns=\"http://www.w3.org/1999/xhtml\"><table class=\"hl7__ips first25\"><tr><th>Active Planned Care / Goals</th><th>Start Date</th><th>Reason</th></tr><tr><td>Diabetes self management plan</td><td><span class=\"nb\">20-Mar-1988</span></td><td>Prediabetes</td></tr><tr><td><ul><li>Patient will demonstrate improved self-management of prediabetes through lifestyle modifications including diet, physical activity, and regular blood glucose monitoring.</li></ul></td><td></td><td></td></tr></table></div>"
        },
        "status": "active",
        "intent": "plan",
        "subject": {
          "reference": "urn:uuid:67275111-8494-43e0-9a1f-b3e3234385ee",
          "display": "Jolanda Valentino"
        }
      }
    },
    {
      "fullUrl": "urn:uuid:f3212bba-cbae-4b2d-af31-e5e3ea6386de",
      "resource": {
        "resourceType": "ImmunizationRecommendation",
        "id": "f3212bba-cbae-4b2d-af31-e5e3ea6386de",
        "recommendation": [
          {
            "vaccineCode": [
              {
                "coding": [
                  {
                    "code": "1181000221105",
                    "system": "http://snomed.info/sct",
                    "display": "Vaccine product containing only Influenza virus antigen (medicinal product)"
                  }
                ]
              }
            ],
            "dateCriterion": [
              {
                "code": {
                  "coding": [
                    {
                      "code": "30980-7",
                      "system": "http://loinc.org",
                      "display": "Date vaccine due"
                    }
                  ]
                },
                "value": "2025-10-01"
              }
            ],
            "targetDisease": {
              "coding": [
                {
                  "code": "6142004",
                  "system": "http://snomed.info/sct",
                  "display": "Influenza (disorder)"
                }
              ]
            },
            "series": "Annual seasonal influenza vaccination",
            "forecastStatus": {
              "coding": [
                {
                  "code": "due",
                  "system": "http://terminology.hl7.org/CodeSystem/immunization-recommendation-status",
                  "display": "Due"
                }
              ]
            }
          }
        ],
        "text": {
          "status": "generated",
          "div": "<div xmlns=\"http://www.w3.org/1999/xhtml\"><table class=\"hl7__ips\"><tr><td>Vaccine product containing only Influenza virus antigen (medicinal product)</td><td><span class=\"nb\">01-Oct-2025</span></td><td>Annual seasonal influenza vaccination</td></tr></table></div>"
        },
        "date": "2025-12-11",
        "patient": {
          "reference": "urn:uuid:67275111-8494-43e0-9a1f-b3e3234385ee",
          "display": "Jolanda Valentino"
        }
      }
    },
    {
      "fullUrl": "urn:uuid:e3a51a82-b692-474b-b697-617c8e437bca",
      "resource": {
        "resourceType": "Observation",
        "id": "e3a51a82-b692-474b-b697-617c8e437bca",
        "meta": {
          "profile": [
            "http://hl7.org/fhir/StructureDefinition/vitalsigns"
          ]
        },
        "category": [
          {
            "coding": [
              {
                "system": "http://terminology.hl7.org/CodeSystem/observation-category",
                "code": "vital-signs",
                "display": "Vital Signs"
              }
            ]
          }
        ],
        "valueQuantity": {
          "value": 74.2,
          "code": "kg",
          "unit": "kg"
        },
        "text": {
          "status": "generated",
          "div": "<div xmlns=\"http://www.w3.org/1999/xhtml\"><table class=\"hl7__ips\"><tr><th>Vital Sign</th><th>Date</th><th>Measurement</th></tr><tr><td>Body Weight</td><td>02-Jul-2025</td><td>74.2 kg</td></tr></table></div>"
        },
        "status": "final",
        "code": {
          "coding": [
            {
              "code": "29463-7",
              "system": "http://loinc.org",
              "display": "Body Weight"
            }
          ]
        },
        "subject": {
          "reference": "urn:uuid:67275111-8494-43e0-9a1f-b3e3234385ee",
          "display": "Jolanda Valentino"
        },
        "effectiveDateTime": "2025-07-02"
      }
    },
    {
      "fullUrl": "urn:uuid:97c3438c-0968-433b-a255-1035d110e3a3",
      "resource": {
        "resourceType": "Observation",
        "id": "97c3438c-0968-433b-a255-1035d110e3a3",
        "meta": {
          "profile": [
            "http://hl7.org/fhir/StructureDefinition/vitalsigns"
          ]
        },
        "category": [
          {
            "coding": [
              {
                "system": "http://terminology.hl7.org/CodeSystem/observation-category",
                "code": "vital-signs",
                "display": "Vital Signs"
              }
            ]
          }
        ],
        "valueQuantity": {
          "value": 163.2,
          "code": "cm",
          "unit": "cm"
        },
        "text": {
          "status": "generated",
          "div": "<div xmlns=\"http://www.w3.org/1999/xhtml\"><table class=\"hl7__ips\"><tr><th>Vital Sign</th><th>Date</th><th>Measurement</th></tr><tr><td>Body Height</td><td>25-Aug-2024</td><td>163.2 cm</td></tr></table></div>"
        },
        "status": "final",
        "code": {
          "coding": [
            {
              "code": "8302-2",
              "system": "http://loinc.org",
              "display": "Body Height"
            }
          ]
        },
        "subject": {
          "reference": "urn:uuid:67275111-8494-43e0-9a1f-b3e3234385ee",
          "display": "Jolanda Valentino"
        },
        "effectiveDateTime": "2024-08-25"
      }
    },
    {
      "fullUrl": "urn:uuid:ad05b28f-9a93-49d3-8579-c7182efbdebe",
      "resource": {
        "resourceType": "Observation",
        "id": "ad05b28f-9a93-49d3-8579-c7182efbdebe",
        "meta": {
          "profile": [
            "http://hl7.org/fhir/StructureDefinition/vitalsigns"
          ]
        },
        "category": [
          {
            "coding": [
              {
                "system": "http://terminology.hl7.org/CodeSystem/observation-category",
                "code": "vital-signs",
                "display": "Vital Signs"
              }
            ]
          }
        ],
        "valueQuantity": {
          "value": 3,
          "code": "{score}",
          "unit": "{score}"
        },
        "text": {
          "status": "generated",
          "div": "<div xmlns=\"http://www.w3.org/1999/xhtml\"><table class=\"hl7__ips\"><tr><th>Vital Sign</th><th>Date</th><th>Measurement</th></tr><tr><td>Pain severity - 0-10 verbal numeric rating [Score] - Reported</td><td>25-Aug-2024</td><td>3 {score}</td></tr></table></div>"
        },
        "status": "final",
        "code": {
          "coding": [
            {
              "code": "72514-3",
              "system": "http://loinc.org",
              "display": "Pain severity - 0-10 verbal numeric rating [Score] - Reported"
            }
          ]
        },
        "subject": {
          "reference": "urn:uuid:67275111-8494-43e0-9a1f-b3e3234385ee",
          "display": "Jolanda Valentino"
        },
        "effectiveDateTime": "2024-08-25"
      }
    },
    {
      "fullUrl": "urn:uuid:1e567246-7cae-41a3-a098-8cd28a2c8953",
      "resource": {
        "resourceType": "Observation",
        "id": "1e567246-7cae-41a3-a098-8cd28a2c8953",
        "meta": {
          "profile": [
            "http://hl7.org/fhir/StructureDefinition/vitalsigns"
          ]
        },
        "category": [
          {
            "coding": [
              {
                "system": "http://terminology.hl7.org/CodeSystem/observation-category",
                "code": "vital-signs",
                "display": "Vital Signs"
              }
            ]
          }
        ],
        "valueQuantity": {
          "value": 74.2,
          "code": "kg",
          "unit": "kg"
        },
        "text": {
          "status": "generated",
          "div": "<div xmlns=\"http://www.w3.org/1999/xhtml\"><table class=\"hl7__ips\"><tr><th>Vital Sign</th><th>Date</th><th>Measurement</th></tr><tr><td>Body Weight</td><td>25-Aug-2024</td><td>74.2 kg</td></tr></table></div>"
        },
        "status": "final",
        "code": {
          "coding": [
            {
              "code": "29463-7",
              "system": "http://loinc.org",
              "display": "Body Weight"
            }
          ]
        },
        "subject": {
          "reference": "urn:uuid:67275111-8494-43e0-9a1f-b3e3234385ee",
          "display": "Jolanda Valentino"
        },
        "effectiveDateTime": "2024-08-25"
      }
    },
    {
      "fullUrl": "urn:uuid:b54cca9d-2e4a-45d2-852b-f180ae191726",
      "resource": {
        "resourceType": "Observation",
        "id": "b54cca9d-2e4a-45d2-852b-f180ae191726",
        "meta": {
          "profile": [
            "http://hl7.org/fhir/StructureDefinition/vitalsigns"
          ]
        },
        "category": [
          {
            "coding": [
              {
                "system": "http://terminology.hl7.org/CodeSystem/observation-category",
                "code": "vital-signs",
                "display": "Vital Signs"
              }
            ]
          }
        ],
        "valueQuantity": {
          "value": 27.9,
          "code": "kg/m2",
          "unit": "kg/m2"
        },
        "text": {
          "status": "generated",
          "div": "<div xmlns=\"http://www.w3.org/1999/xhtml\"><table class=\"hl7__ips\"><tr><th>Vital Sign</th><th>Date</th><th>Measurement</th></tr><tr><td>Body mass index (BMI) [Ratio]</td><td>25-Aug-2024</td><td>27.9 kg/m2</td></tr></table></div>"
        },
        "status": "final",
        "code": {
          "coding": [
            {
              "code": "39156-5",
              "system": "http://loinc.org",
              "display": "Body mass index (BMI) [Ratio]"
            }
          ]
        },
        "subject": {
          "reference": "urn:uuid:67275111-8494-43e0-9a1f-b3e3234385ee",
          "display": "Jolanda Valentino"
        },
        "effectiveDateTime": "2024-08-25"
      }
    },
    {
      "fullUrl": "urn:uuid:1c55821a-482c-4fd3-b0ff-655960f5b67a",
      "resource": {
        "resourceType": "Observation",
        "id": "1c55821a-482c-4fd3-b0ff-655960f5b67a",
        "meta": {
          "profile": [
            "http://hl7.org/fhir/StructureDefinition/vitalsigns"
          ]
        },
        "category": [
          {
            "coding": [
              {
                "system": "http://terminology.hl7.org/CodeSystem/observation-category",
                "code": "vital-signs",
                "display": "Vital Signs"
              }
            ]
          }
        ],
        "valueQuantity": {
          "value": 73,
          "code": "mm[Hg]",
          "unit": "mm[Hg]"
        },
        "text": {
          "status": "generated",
          "div": "<div xmlns=\"http://www.w3.org/1999/xhtml\"><table class=\"hl7__ips\"><tr><th>Vital Sign</th><th>Date</th><th>Measurement</th></tr><tr><td>Diastolic Blood Pressure</td><td>25-Aug-2024</td><td>73 mm[Hg]</td></tr></table></div>"
        },
        "status": "final",
        "code": {
          "coding": [
            {
              "code": "8462-4",
              "system": "http://loinc.org",
              "display": "Diastolic Blood Pressure"
            }
          ]
        },
        "subject": {
          "reference": "urn:uuid:67275111-8494-43e0-9a1f-b3e3234385ee",
          "display": "Jolanda Valentino"
        },
        "effectiveDateTime": "2024-08-25"
      }
    },
    {
      "fullUrl": "urn:uuid:98f399ea-03b5-4818-b738-3a3a7407d07c",
      "resource": {
        "resourceType": "Observation",
        "id": "98f399ea-03b5-4818-b738-3a3a7407d07c",
        "meta": {
          "profile": [
            "http://hl7.org/fhir/StructureDefinition/vitalsigns"
          ]
        },
        "category": [
          {
            "coding": [
              {
                "system": "http://terminology.hl7.org/CodeSystem/observation-category",
                "code": "vital-signs",
                "display": "Vital Signs"
              }
            ]
          }
        ],
        "valueQuantity": {
          "value": 120,
          "code": "mm[Hg]",
          "unit": "mm[Hg]"
        },
        "text": {
          "status": "generated",
          "div": "<div xmlns=\"http://www.w3.org/1999/xhtml\"><table class=\"hl7__ips\"><tr><th>Vital Sign</th><th>Date</th><th>Measurement</th></tr><tr><td>Systolic Blood Pressure</td><td>25-Aug-2024</td><td>120 mm[Hg]</td></tr></table></div>"
        },
        "status": "final",
        "code": {
          "coding": [
            {
              "code": "8480-6",
              "system": "http://loinc.org",
              "display": "Systolic Blood Pressure"
            }
          ]
        },
        "subject": {
          "reference": "urn:uuid:67275111-8494-43e0-9a1f-b3e3234385ee",
          "display": "Jolanda Valentino"
        },
        "effectiveDateTime": "2024-08-25"
      }
    },
    {
      "fullUrl": "urn:uuid:0353faef-cc71-442e-ac9b-093c3b5c374f",
      "resource": {
        "resourceType": "Observation",
        "id": "0353faef-cc71-442e-ac9b-093c3b5c374f",
        "meta": {
          "profile": [
            "http://hl7.org/fhir/StructureDefinition/vitalsigns"
          ]
        },
        "category": [
          {
            "coding": [
              {
                "system": "http://terminology.hl7.org/CodeSystem/observation-category",
                "code": "vital-signs",
                "display": "Vital Signs"
              }
            ]
          }
        ],
        "valueQuantity": {
          "value": 65,
          "code": "/min",
          "unit": "/min"
        },
        "text": {
          "status": "generated",
          "div": "<div xmlns=\"http://www.w3.org/1999/xhtml\"><table class=\"hl7__ips\"><tr><th>Vital Sign</th><th>Date</th><th>Measurement</th></tr><tr><td>Heart rate</td><td>25-Aug-2024</td><td>65 /min</td></tr></table></div>"
        },
        "status": "final",
        "code": {
          "coding": [
            {
              "code": "8867-4",
              "system": "http://loinc.org",
              "display": "Heart rate"
            }
          ]
        },
        "subject": {
          "reference": "urn:uuid:67275111-8494-43e0-9a1f-b3e3234385ee",
          "display": "Jolanda Valentino"
        },
        "effectiveDateTime": "2024-08-25"
      }
    },
    {
      "fullUrl": "urn:uuid:c4e9b1ab-9d93-4b81-82b7-a8ce33386539",
      "resource": {
        "resourceType": "Observation",
        "id": "c4e9b1ab-9d93-4b81-82b7-a8ce33386539",
        "meta": {
          "profile": [
            "http://hl7.org/fhir/StructureDefinition/vitalsigns"
          ]
        },
        "category": [
          {
            "coding": [
              {
                "system": "http://terminology.hl7.org/CodeSystem/observation-category",
                "code": "vital-signs",
                "display": "Vital Signs"
              }
            ]
          }
        ],
        "valueQuantity": {
          "value": 15,
          "code": "/min",
          "unit": "/min"
        },
        "text": {
          "status": "generated",
          "div": "<div xmlns=\"http://www.w3.org/1999/xhtml\"><table class=\"hl7__ips\"><tr><th>Vital Sign</th><th>Date</th><th>Measurement</th></tr><tr><td>Respiratory rate</td><td>25-Aug-2024</td><td>15 /min</td></tr></table></div>"
        },
        "status": "final",
        "code": {
          "coding": [
            {
              "code": "9279-1",
              "system": "http://loinc.org",
              "display": "Respiratory rate"
            }
          ]
        },
        "subject": {
          "reference": "urn:uuid:67275111-8494-43e0-9a1f-b3e3234385ee",
          "display": "Jolanda Valentino"
        },
        "effectiveDateTime": "2024-08-25"
      }
    },
    {
      "fullUrl": "urn:uuid:1f589c68-6fc8-4537-82c7-004f5099e6c0",
      "resource": {
        "resourceType": "Observation",
        "id": "1f589c68-6fc8-4537-82c7-004f5099e6c0",
        "meta": {
          "profile": [
            "http://hl7.eu/fhir/laboratory/StructureDefinition/Observation-resultslab-eu-lab"
          ]
        },
        "performer": [
          {
            "display": "The Central European Lab"
          }
        ],
        "category": [
          {
            "coding": [
              {
                "system": "http://terminology.hl7.org/CodeSystem/observation-category",
                "code": "laboratory"
              }
            ]
          }
        ],
        "code": {
          "coding": [
            {
              "code": "2339-0",
              "system": "http://loinc.org",
              "display": "Glucose [Mass/volume] in Blood"
            }
          ],
          "text": "Glucose [Mass/volume] in Blood"
        },
        "valueQuantity": {
          "system": "http://unitsofmeasure.org",
          "value": 95.4,
          "unit": "mg/dL",
          "code": "mg/dL"
        },
        "referenceRange": [
          {
            "low": {
              "value": 70,
              "code": "mg/dL",
              "system": "http://unitsofmeasure.org"
            }
          },
          {
            "high": {
              "value": 140,
              "code": "mg/dL",
              "system": "http://unitsofmeasure.org"
            }
          }
        ],
        "text": {
          "status": "generated",
          "div": "<div xmlns=\"http://www.w3.org/1999/xhtml\"><table class=\"hl7__eu__lab__report\"><tr><th>Test</th><th>16-Jul-2025</th><th>Reference&#xA0;Range</th><th>Unit</th></tr><tr><td>Glucose [Mass/volume] in Blood</td><td>95.4</td><td>70 - 140</td><td></td><td>mg/dL</td></tr></table></div>"
        },
        "status": "final",
        "subject": {
          "reference": "urn:uuid:67275111-8494-43e0-9a1f-b3e3234385ee",
          "display": "Jolanda Valentino"
        },
        "effectiveDateTime": "2025-07-16T18:32:54Z"
      }
    },
    {
      "fullUrl": "urn:uuid:9cc0ff1e-0d27-4da4-97dd-d2b7e2937858",
      "resource": {
        "resourceType": "Observation",
        "id": "9cc0ff1e-0d27-4da4-97dd-d2b7e2937858",
        "meta": {
          "profile": [
            "http://hl7.eu/fhir/laboratory/StructureDefinition/Observation-resultslab-eu-lab"
          ]
        },
        "performer": [
          {
            "display": "The Central European Lab"
          }
        ],
        "category": [
          {
            "coding": [
              {
                "system": "http://terminology.hl7.org/CodeSystem/observation-category",
                "code": "laboratory"
              }
            ]
          }
        ],
        "code": {
          "coding": [
            {
              "code": "6299-2",
              "system": "http://loinc.org",
              "display": "Urea nitrogen [Mass/volume] in Blood"
            }
          ],
          "text": "Urea nitrogen [Mass/volume] in Blood"
        },
        "valueQuantity": {
          "system": "http://unitsofmeasure.org",
          "value": 13.3,
          "unit": "mg/dL",
          "code": "mg/dL"
        },
        "referenceRange": [
          {
            "low": {
              "value": 7,
              "code": "mg/dL",
              "system": "http://unitsofmeasure.org"
            }
          },
          {
            "high": {
              "value": 20,
              "code": "mg/dL",
              "system": "http://unitsofmeasure.org"
            }
          }
        ],
        "text": {
          "status": "generated",
          "div": "<div xmlns=\"http://www.w3.org/1999/xhtml\"><table class=\"hl7__eu__lab__report\"><tr><th>Test</th><th>16-Jul-2025</th><th>Reference&#xA0;Range</th><th>Unit</th></tr><tr><td>Urea nitrogen [Mass/volume] in Blood</td><td>13.3</td><td>7 - 20</td><td></td><td>mg/dL</td></tr></table></div>"
        },
        "status": "final",
        "subject": {
          "reference": "urn:uuid:67275111-8494-43e0-9a1f-b3e3234385ee",
          "display": "Jolanda Valentino"
        },
        "effectiveDateTime": "2025-07-16T18:32:54Z"
      }
    },
    {
      "fullUrl": "urn:uuid:665a1893-eca0-4408-80ae-5cbf4d2a80e4",
      "resource": {
        "resourceType": "Observation",
        "id": "665a1893-eca0-4408-80ae-5cbf4d2a80e4",
        "meta": {
          "profile": [
            "http://hl7.eu/fhir/laboratory/StructureDefinition/Observation-resultslab-eu-lab"
          ]
        },
        "performer": [
          {
            "display": "The Central European Lab"
          }
        ],
        "category": [
          {
            "coding": [
              {
                "system": "http://terminology.hl7.org/CodeSystem/observation-category",
                "code": "laboratory"
              }
            ]
          }
        ],
        "code": {
          "coding": [
            {
              "code": "38483-4",
              "system": "http://loinc.org",
              "display": "Creatinine [Mass/volume] in Blood"
            }
          ],
          "text": "Creatinine [Mass/volume] in Blood"
        },
        "valueQuantity": {
          "system": "http://unitsofmeasure.org",
          "value": 0.8,
          "unit": "mg/dL",
          "code": "mg/dL"
        },
        "referenceRange": [
          {
            "low": {
              "value": 0.6,
              "code": "mg/dL",
              "system": "http://unitsofmeasure.org"
            }
          },
          {
            "high": {
              "value": 1.1,
              "code": "mg/dL",
              "system": "http://unitsofmeasure.org"
            }
          }
        ],
        "text": {
          "status": "generated",
          "div": "<div xmlns=\"http://www.w3.org/1999/xhtml\"><table class=\"hl7__eu__lab__report\"><tr><th>Test</th><th>16-Jul-2025</th><th>Reference&#xA0;Range</th><th>Unit</th></tr><tr><td>Creatinine [Mass/volume] in Blood</td><td>0.8</td><td>0.6 - 1.1</td><td></td><td>mg/dL</td></tr></table></div>"
        },
        "status": "final",
        "subject": {
          "reference": "urn:uuid:67275111-8494-43e0-9a1f-b3e3234385ee",
          "display": "Jolanda Valentino"
        },
        "effectiveDateTime": "2025-07-16T18:32:54Z"
      }
    },
    {
      "fullUrl": "urn:uuid:35ce92f1-2b10-432e-837a-cf6126fd0554",
      "resource": {
        "resourceType": "Observation",
        "id": "35ce92f1-2b10-432e-837a-cf6126fd0554",
        "meta": {
          "profile": [
            "http://hl7.eu/fhir/laboratory/StructureDefinition/Observation-resultslab-eu-lab"
          ]
        },
        "performer": [
          {
            "display": "The Central European Lab"
          }
        ],
        "category": [
          {
            "coding": [
              {
                "system": "http://terminology.hl7.org/CodeSystem/observation-category",
                "code": "laboratory"
              }
            ]
          }
        ],
        "code": {
          "coding": [
            {
              "code": "49765-1",
              "system": "http://loinc.org",
              "display": "Calcium [Mass/volume] in Blood"
            }
          ],
          "text": "Calcium [Mass/volume] in Blood"
        },
        "valueQuantity": {
          "system": "http://unitsofmeasure.org",
          "value": 8.6,
          "unit": "mg/dL",
          "code": "mg/dL"
        },
        "referenceRange": [
          {
            "low": {
              "value": 8.6,
              "code": "mg/dL",
              "system": "http://unitsofmeasure.org"
            }
          },
          {
            "high": {
              "value": 10.4,
              "code": "mg/dL",
              "system": "http://unitsofmeasure.org"
            }
          }
        ],
        "text": {
          "status": "generated",
          "div": "<div xmlns=\"http://www.w3.org/1999/xhtml\"><table class=\"hl7__eu__lab__report\"><tr><th>Test</th><th>16-Jul-2025</th><th>Reference&#xA0;Range</th><th>Unit</th></tr><tr><td>Calcium [Mass/volume] in Blood</td><td>8.6</td><td>8.6 - 10.4</td><td></td><td>mg/dL</td></tr></table></div>"
        },
        "status": "final",
        "subject": {
          "reference": "urn:uuid:67275111-8494-43e0-9a1f-b3e3234385ee",
          "display": "Jolanda Valentino"
        },
        "effectiveDateTime": "2025-07-16T18:32:54Z"
      }
    },
    {
      "fullUrl": "urn:uuid:73f85981-99b1-4175-a6c4-b7fe0754d168",
      "resource": {
        "resourceType": "Observation",
        "id": "73f85981-99b1-4175-a6c4-b7fe0754d168",
        "meta": {
          "profile": [
            "http://hl7.eu/fhir/laboratory/StructureDefinition/Observation-resultslab-eu-lab"
          ]
        },
        "performer": [
          {
            "display": "The Central European Lab"
          }
        ],
        "category": [
          {
            "coding": [
              {
                "system": "http://terminology.hl7.org/CodeSystem/observation-category",
                "code": "laboratory"
              }
            ]
          }
        ],
        "code": {
          "coding": [
            {
              "code": "2947-0",
              "system": "http://loinc.org",
              "display": "Sodium [Moles/volume] in Blood"
            }
          ],
          "text": "Sodium [Moles/volume] in Blood"
        },
        "valueQuantity": {
          "system": "http://unitsofmeasure.org",
          "value": 142,
          "unit": "mmol/L",
          "code": "mmol/L"
        },
        "referenceRange": [
          {
            "low": {
              "value": 135,
              "code": "mmol/L",
              "system": "http://unitsofmeasure.org"
            }
          },
          {
            "high": {
              "value": 145,
              "code": "mmol/L",
              "system": "http://unitsofmeasure.org"
            }
          }
        ],
        "text": {
          "status": "generated",
          "div": "<div xmlns=\"http://www.w3.org/1999/xhtml\"><table class=\"hl7__eu__lab__report\"><tr><th>Test</th><th>16-Jul-2025</th><th>Reference&#xA0;Range</th><th>Unit</th></tr><tr><td>Sodium [Moles/volume] in Blood</td><td>142.0</td><td>135 - 145</td><td></td><td>mmol/L</td></tr></table></div>"
        },
        "status": "final",
        "subject": {
          "reference": "urn:uuid:67275111-8494-43e0-9a1f-b3e3234385ee",
          "display": "Jolanda Valentino"
        },
        "effectiveDateTime": "2025-07-16T18:32:54Z"
      }
    },
    {
      "fullUrl": "urn:uuid:bd886c36-63c0-434b-8d0f-0923f69a5318",
      "resource": {
        "resourceType": "Observation",
        "id": "bd886c36-63c0-434b-8d0f-0923f69a5318",
        "meta": {
          "profile": [
            "http://hl7.eu/fhir/laboratory/StructureDefinition/Observation-resultslab-eu-lab"
          ]
        },
        "performer": [
          {
            "display": "The Central European Lab"
          }
        ],
        "category": [
          {
            "coding": [
              {
                "system": "http://terminology.hl7.org/CodeSystem/observation-category",
                "code": "laboratory"
              }
            ]
          }
        ],
        "code": {
          "coding": [
            {
              "code": "6298-4",
              "system": "http://loinc.org",
              "display": "Potassium [Moles/volume] in Blood"
            }
          ],
          "text": "Potassium [Moles/volume] in Blood"
        },
        "valueQuantity": {
          "system": "http://unitsofmeasure.org",
          "value": 4.2,
          "unit": "mmol/L",
          "code": "mmol/L"
        },
        "referenceRange": [
          {
            "low": {
              "value": 3.5,
              "code": "mmol/L",
              "system": "http://unitsofmeasure.org"
            }
          },
          {
            "high": {
              "value": 5.1,
              "code": "mmol/L",
              "system": "http://unitsofmeasure.org"
            }
          }
        ],
        "text": {
          "status": "generated",
          "div": "<div xmlns=\"http://www.w3.org/1999/xhtml\"><table class=\"hl7__eu__lab__report\"><tr><th>Test</th><th>16-Jul-2025</th><th>Reference&#xA0;Range</th><th>Unit</th></tr><tr><td>Potassium [Moles/volume] in Blood</td><td>4.2</td><td>3.5 - 5.1</td><td></td><td>mmol/L</td></tr></table></div>"
        },
        "status": "final",
        "subject": {
          "reference": "urn:uuid:67275111-8494-43e0-9a1f-b3e3234385ee",
          "display": "Jolanda Valentino"
        },
        "effectiveDateTime": "2025-07-16T18:32:54Z"
      }
    },
    {
      "fullUrl": "urn:uuid:a18f4667-022c-4514-92b7-4ca77b497a3f",
      "resource": {
        "resourceType": "Observation",
        "id": "a18f4667-022c-4514-92b7-4ca77b497a3f",
        "meta": {
          "profile": [
            "http://hl7.eu/fhir/laboratory/StructureDefinition/Observation-resultslab-eu-lab"
          ]
        },
        "performer": [
          {
            "display": "The Central European Lab"
          }
        ],
        "category": [
          {
            "coding": [
              {
                "system": "http://terminology.hl7.org/CodeSystem/observation-category",
                "code": "laboratory"
              }
            ]
          }
        ],
        "code": {
          "coding": [
            {
              "code": "2069-3",
              "system": "http://loinc.org",
              "display": "Chloride [Moles/volume] in Blood"
            }
          ],
          "text": "Chloride [Moles/volume] in Blood"
        },
        "valueQuantity": {
          "system": "http://unitsofmeasure.org",
          "value": 106.4,
          "unit": "mmol/L",
          "code": "mmol/L"
        },
        "referenceRange": [
          {
            "low": {
              "value": 98,
              "code": "mmol/L",
              "system": "http://unitsofmeasure.org"
            }
          },
          {
            "high": {
              "value": 114,
              "code": "mmol/L",
              "system": "http://unitsofmeasure.org"
            }
          }
        ],
        "text": {
          "status": "generated",
          "div": "<div xmlns=\"http://www.w3.org/1999/xhtml\"><table class=\"hl7__eu__lab__report\"><tr><th>Test</th><th>16-Jul-2025</th><th>Reference&#xA0;Range</th><th>Unit</th></tr><tr><td>Chloride [Moles/volume] in Blood</td><td>106.4</td><td>98 - 114</td><td></td><td>mmol/L</td></tr></table></div>"
        },
        "status": "final",
        "subject": {
          "reference": "urn:uuid:67275111-8494-43e0-9a1f-b3e3234385ee",
          "display": "Jolanda Valentino"
        },
        "effectiveDateTime": "2025-07-16T18:32:54Z"
      }
    },
    {
      "fullUrl": "urn:uuid:cb621476-c66f-493b-a0d9-d491af074c83",
      "resource": {
        "resourceType": "Observation",
        "id": "cb621476-c66f-493b-a0d9-d491af074c83",
        "meta": {
          "profile": [
            "http://hl7.eu/fhir/laboratory/StructureDefinition/Observation-resultslab-eu-lab"
          ]
        },
        "performer": [
          {
            "display": "The Central European Lab"
          }
        ],
        "category": [
          {
            "coding": [
              {
                "system": "http://terminology.hl7.org/CodeSystem/observation-category",
                "code": "laboratory"
              }
            ]
          }
        ],
        "code": {
          "coding": [
            {
              "code": "20565-8",
              "system": "http://loinc.org",
              "display": "Carbon dioxide, total [Moles/volume] in Blood"
            }
          ],
          "text": "Carbon dioxide, total [Moles/volume] in Blood"
        },
        "valueQuantity": {
          "system": "http://unitsofmeasure.org",
          "value": 25.4,
          "unit": "mmol/L",
          "code": "mmol/L"
        },
        "referenceRange": [
          {
            "low": {
              "value": 22,
              "code": "mmol/L",
              "system": "http://unitsofmeasure.org"
            }
          },
          {
            "high": {
              "value": 32,
              "code": "mmol/L",
              "system": "http://unitsofmeasure.org"
            }
          }
        ],
        "text": {
          "status": "generated",
          "div": "<div xmlns=\"http://www.w3.org/1999/xhtml\"><table class=\"hl7__eu__lab__report\"><tr><th>Test</th><th>16-Jul-2025</th><th>Reference&#xA0;Range</th><th>Unit</th></tr><tr><td>Carbon dioxide, total [Moles/volume] in Blood</td><td>25.4</td><td>22 - 32</td><td></td><td>mmol/L</td></tr></table></div>"
        },
        "status": "final",
        "subject": {
          "reference": "urn:uuid:67275111-8494-43e0-9a1f-b3e3234385ee",
          "display": "Jolanda Valentino"
        },
        "effectiveDateTime": "2025-07-16T18:32:54Z"
      }
    },
    {
      "fullUrl": "urn:uuid:1773c33f-7a42-4b9a-b21c-24dde8163225",
      "resource": {
        "resourceType": "DeviceUseStatement",
        "id": "1773c33f-7a42-4b9a-b21c-24dde8163225",
        "meta": {
          "profile": [
            "http://hl7.eu/fhir/eps/StructureDefinition/deviceUseStatement-eu-eps"
          ]
        },
        "timingPeriod": {
          "start": "1988-03-20"
        },
        "text": {
          "status": "generated",
          "div": "<div xmlns=\"http://www.w3.org/1999/xhtml\"><table class=\"hl7__ips\"><tr><td>Blood glucose meter (physical object)</td><td><span class=\"nb\">20-Mar-1988</span></td></tr></table></div>"
        },
        "status": "active",
        "device": {
          "reference": "urn:uuid:aad9ac6b-3eef-4e33-901a-19775b24be4a",
          "display": "Blood glucose meter (physical object)"
        },
        "subject": {
          "reference": "urn:uuid:67275111-8494-43e0-9a1f-b3e3234385ee",
          "display": "Jolanda Valentino"
        }
      }
    },
    {
      "fullUrl": "urn:uuid:aad9ac6b-3eef-4e33-901a-19775b24be4a",
      "resource": {
        "resourceType": "Device",
        "id": "aad9ac6b-3eef-4e33-901a-19775b24be4a",
        "meta": {
          "profile": [
            "http://hl7.eu/fhir/eps/StructureDefinition/device-eu-eps"
          ]
        },
        "udiCarrier": [
          {
            "id": "(01)24176708557241(11)880228(17)130314(10)25187(21)5405150479326323"
          }
        ],
        "status": "active",
        "patient": {
          "reference": "urn:uuid:67275111-8494-43e0-9a1f-b3e3234385ee",
          "display": "Jolanda Valentino"
        },
        "type": {
          "coding": [
            {
              "code": "337414009",
              "system": "http://snomed.info/sct",
              "display": "Blood glucose meter (physical object)"
            }
          ]
        }
      }
    },
    {
      "fullUrl": "urn:uuid:32d840e1-48d9-47a9-bead-7d70fc4275cf",
      "resource": {
        "resourceType": "Device",
        "id": "32d840e1-48d9-47a9-bead-7d70fc4275cf",
        "deviceName": [
          {
            "name": "SYNDERAI Synthetic Generator",
            "type": "manufacturer-name"
          }
        ],
        "version": [
          {
            "value": "5.0"
          }
        ],
        "text": {
          "status": "generated",
          "div": "<div xmlns=\"http://www.w3.org/1999/xhtml\">SYNDERAI Synthetic Generator v5.0</div>"
        },
        "status": "active",
        "distinctIdentifier": "synderai-generator-50",
        "manufacturer": "SYNDERAI Project"
      }
    },
    {
      "fullUrl": "urn:uuid:fab515aa-8273-4db9-98b3-99e275ceadf3",
      "resource": {
        "resourceType": "Provenance",
        "id": "fab515aa-8273-4db9-98b3-99e275ceadf3",
        "target": [
          {
            "reference": "Patient/67275111-8494-43e0-9a1f-b3e3234385ee"
          },
          {
            "reference": "Bundle/5c0f738b-15e5-435a-add4-07b82b71ab43"
          },
          {
            "reference": "Composition/23618d9e-843a-4d25-a8fb-a598dcdc23f6"
          },
          {
            "reference": "PractitionerRole/40a74df9-5107-4280-bc62-6160072790f9"
          },
          {
            "reference": "Organization/f20b1e27-4067-4d93-828c-dd506284be62"
          },
          {
            "reference": "Practitioner/2cb4eb3b-5203-4246-b8fd-b72077e2a057"
          }
        ],
        "activity": {
          "text": "Synthetic Example Data Generation"
        },
        "policy": [
          "https://synderai.net/synderai-synthetic-data-policy"
        ],
        "agent": [
          {
            "type": {
              "text": "author"
            },
            "who": {
              "reference": "Device/32d840e1-48d9-47a9-bead-7d70fc4275cf"
            }
          }
        ],
        "reason": [
          {
            "text": "Interoperability Testing and Training (non-clinical use)"
          }
        ],
        "text": {
          "status": "generated",
          "div": "<div xmlns=\"http://www.w3.org/1999/xhtml\">Provenance for SYNDERAI Synthetic Example Data Resource</div>"
        },
        "recorded": "2025-07-16T18:32:54Z"
      }
    }
  ],
  "type": "document",
  "timestamp": "2025-07-16T18:32:54Z"
}
