{
  "resourceType": "Bundle",
  "id": "23383df3-3c5a-4e18-a8c4-8800d3feacf1",
  "meta": {
    "profile": [
      "http://hl7.eu/fhir/eps/StructureDefinition/bundle-eu-eps"
    ]
  },
  "identifier": {
    "assigner": {
      "display": "HL7 Europe"
    },
    "system": "urn:oid:2.16.840.1.113883.2.51.999",
    "value": "9cdc60ad-7d5e-4874-9d69-2715af8bd437"
  },
  "entry": [
    {
      "fullUrl": "urn:uuid:1d5d7dc6-d060-4453-b112-90735b4b63a9",
      "resource": {
        "resourceType": "Composition",
        "id": "1d5d7dc6-d060-4453-b112-90735b4b63a9",
        "meta": {
          "security": [
            {
              "system": "http://terminology.hl7.org/CodeSystem/v3-ActReason",
              "code": "HTEST"
            },
            {
              "system": "http://terminology.hl7.org/CodeSystem/v3-ActReason",
              "code": "TRAIN"
            }
          ],
          "tag": [
            {
              "system": "https://synderai.net/fhir/CodeSystem/tags",
              "code": "synthetic",
              "display": "SYNDERAI Synthetic data"
            }
          ],
          "profile": [
            "http://hl7.eu/fhir/eps/StructureDefinition/composition-eu-eps"
          ]
        },
        "identifier": {
          "assigner": {
            "display": "HL7 Europe"
          },
          "system": "urn:oid:2.16.840.1.113883.2.51.999",
          "value": "72c6e032-a879-45ec-97df-89d63c9b4374"
        },
        "type": {
          "coding": [
            {
              "code": "60591-5",
              "system": "http://loinc.org",
              "display": "Patient summary Document"
            }
          ],
          "text": "Patient summary Document"
        },
        "author": [
          {
            "reference": "urn:uuid:4a374c03-915b-4457-b698-01c21f0fa887"
          }
        ],
        "section": [
          {
            "text": {
              "status": "generated",
              "div": "<div xmlns=\"http://www.w3.org/1999/xhtml\"><table class=\"hl7__ips\"><tr><th>Condition</th><th>Onset Date</th><th>Status</th></tr><tr><td>Alzheimer's disease</td><td><span class=\"nb\">19-Jul-2022</span></td><td>active</td></tr><tr><td>Ischemic heart disease</td><td><span class=\"nb\">05-May-2009</span></td><td>active</td></tr><tr><td>Aortic valve stenosis</td><td><span class=\"nb\">13-Dec-2000</span></td><td>active</td></tr><tr><td>Anemia</td><td><span class=\"nb\">08-Feb-1994</span></td><td>active</td></tr><tr><td>Prediabetes</td><td><span class=\"nb\">13-Jan-1981</span></td><td>active</td></tr></table></div>"
            },
            "entry": [
              {
                "reference": "urn:uuid:26c5287b-f26a-4594-8750-a300dc6074a9"
              }
            ],
            "code": {
              "coding": [
                {
                  "system": "http://loinc.org",
                  "code": "11450-4",
                  "display": "Problem list - Reported"
                }
              ]
            },
            "title": "Problem list"
          },
          {
            "text": {
              "status": "generated",
              "div": "<div xmlns=\"http://www.w3.org/1999/xhtml\"><table class=\"hl7__ips\"><tr><td>No known medications</td></tr></table></div>"
            },
            "entry": [
              {
                "reference": "urn:uuid:ce8ffd63-6645-4263-967f-adc9e6b3406d"
              }
            ],
            "code": {
              "coding": [
                {
                  "system": "http://loinc.org",
                  "code": "10160-0",
                  "display": "History of Medication use Narrative"
                }
              ]
            },
            "title": "Medication list"
          },
          {
            "text": {
              "status": "generated",
              "div": "<div xmlns=\"http://www.w3.org/1999/xhtml\"><table class=\"hl7__ips\"><tr><th>Vaccine</th><th>Date</th></tr><tr><td>Influenza virus antigen only vaccine product</td><td><span class=\"nb\">30-Jul-2024</span></td></tr><tr><td>SARS-CoV-2 mRNA vaccine</td><td><span class=\"nb\">11-May-2021</span></td></tr><tr><td>Clostridium tetani toxoid antigen adsorbed only vaccine product</td><td><span class=\"nb\">26-Jun-2018</span></td></tr></table></div>"
            },
            "entry": [
              {
                "reference": "urn:uuid:ba3be7a2-57f6-4a9b-9e4d-11fc415adeba"
              }
            ],
            "code": {
              "coding": [
                {
                  "system": "http://loinc.org",
                  "code": "11369-6",
                  "display": "History of Immunization note"
                }
              ]
            },
            "title": "Immunizations list"
          },
          {
            "text": {
              "status": "generated",
              "div": "<div xmlns=\"http://www.w3.org/1999/xhtml\"><table class=\"hl7__ips\"><tr><th>Procedure</th><th>Date</th><th>Reason</th></tr><tr><td>Patient discharge</td><td><span class=\"nb\">14-Jan-2022</span></td><td>-</td></tr><tr><td>Hospice care</td><td><span class=\"nb\">13-Jan-2022</span></td><td>-</td></tr><tr><td>Notifications</td><td><span class=\"nb\">04-Jan-2022</span></td><td>-</td></tr><tr><td>Certification procedure</td><td><span class=\"nb\">04-Jan-2022</span></td><td>-</td></tr><tr><td>Initial patient assessment</td><td><span class=\"nb\">04-Jan-2022</span></td><td>-</td></tr><tr><td>Development of individualized plan of care</td><td><span class=\"nb\">04-Jan-2022</span></td><td>-</td></tr></table></div>"
            },
            "entry": [
              {
                "reference": "urn:uuid:86de0043-a041-4228-814d-b6743e9ff168"
              }
            ],
            "code": {
              "coding": [
                {
                  "system": "http://loinc.org",
                  "code": "47519-4",
                  "display": "History of Procedures Document"
                }
              ]
            },
            "title": "Procedure History list"
          },
          {
            "text": {
              "status": "generated",
              "div": "<div xmlns=\"http://www.w3.org/1999/xhtml\"><table class=\"hl7__ips\"><tr><th>Allergy/Intolerance</th><th>Onset Date</th><th>Status</th><th>Type</th><th>Reaction</th></tr><tr><td></td><td>?</td><td>active</td><td>?</td><td></td></tr></table></div>"
            },
            "entry": [
              {
                "reference": "urn:uuid:44704ee3-c0f4-4ad3-9c3c-0ee89c53a145"
              }
            ],
            "code": {
              "coding": [
                {
                  "system": "http://loinc.org",
                  "code": "48765-2",
                  "display": "Allergies and adverse reactions Document"
                }
              ]
            },
            "title": "Allergies and Intolerances"
          },
          {
            "text": {
              "status": "generated",
              "div": "<div xmlns=\"http://www.w3.org/1999/xhtml\"><table class=\"hl7__ips\"><tr><th>Active Planned Care / Goals</th><th>Start Date</th><th>Reason</th></tr><tr><td>Dementia management</td><td><span class=\"nb\">19-Jul-2022</span></td><td>Alzheimer's disease (disorder)</td></tr><tr><td><ul><li>Support maintenance of current cognitive abilities and slow progression of cognitive decline.</li><li>Enable patient to perform basic activities of daily living (ADLs) with minimal assistance.</li><li>Minimize frequency and severity of behavioral disturbances such as agitation, aggression, or wandering.</li><li>Ensure patient or caregiver administers prescribed dementia medications as directed.</li><li>Ensure caregiver receives education and support to manage dementia-related care needs.</li></ul></td><td></td><td></td></tr><tr><td>Discharge care plan</td><td><span class=\"nb\">08-Nov-2007</span></td><td>History of aortic valve replacement (situation)</td></tr><tr><td><ul><li>Patient and caregiver will demonstrate understanding of discharge instructions, including medication regimen, activity restrictions, and follow-up appointments.</li><li>All medications will be reviewed and reconciled to ensure accuracy and safety at discharge.</li><li>Discharge instructions will be communicated using strategies appropriate for cognitive impairment, with caregiver involvement.</li><li>Hemoglobin level will be maintained within the target range prior to discharge.</li><li>Fasting glucose will be maintained within the prediabetes range prior to discharge.</li><li>Patient will be hemodynamically stable with no new or worsening symptoms of ischemic heart disease or aortic valve dysfunction at discharge.</li></ul></td><td></td><td></td></tr><tr><td>Care plan</td><td><span class=\"nb\">04-Oct-2007</span></td><td>Aortic valve stenosis (disorder)</td></tr><tr><td><ul><li>Minimize dyspnea, fatigue, and chest pain related to aortic valve stenosis</li><li>Maintain systolic blood pressure below 140 mmHg</li><li>Maintain hemoglobin above 11 g/dL</li><li>Monitor B-type natriuretic peptide (BNP) to detect worsening heart failure</li></ul></td><td></td><td></td></tr><tr><td>Diabetes self management plan</td><td><span class=\"nb\">13-Jan-1981</span></td><td>Prediabetes</td></tr><tr><td><ul><li>Maintain hemoglobin A1c (HbA1c) below 6.5% to reduce risk of progression to diabetes.</li><li>Achieve and maintain a healthy body weight to support glycemic control.</li><li>Engage in at least 150 minutes of moderate-intensity physical activity per week as tolerated.</li><li>Adopt a balanced diet with reduced intake of simple sugars and saturated fats to support glycemic control.</li><li>Maintain blood pressure below 130/80 mmHg to reduce cardiovascular risk.</li></ul></td><td></td><td></td></tr><tr><th>Immunization Recommendation</th><th>Due Date</th><th>Reason</th></tr><tr><td>Vaccine product containing only Influenza virus antigen (medicinal product)</td><td><span class=\"nb\">01-Oct-2025</span></td><td>Annual seasonal influenza vaccination</td></tr></table></div>"
            },
            "title": "Care Plan",
            "code": {
              "coding": [
                {
                  "code": "18776-5",
                  "system": "http://loinc.org",
                  "display": "Plan of care note"
                }
              ]
            }
          },
          {
            "text": {
              "status": "generated",
              "div": "<div xmlns=\"http://www.w3.org/1999/xhtml\"><table class=\"hl7__ips\"><tr><th>Vital Signs</th><th>2024-07-30</th><th>2023-07-25</th></tr><tr><td>Body Height</td><td>187.3 cm</td><td>187.3 cm</td></tr><tr><td>Pain severity - 0-10 verbal numeric rating [Score] - Reported</td><td>2 {score}</td><td>3 {score}</td></tr><tr><td>Body Weight</td><td>97.6 kg</td><td>97.6 kg</td></tr><tr><td>Body mass index (BMI) [Ratio]</td><td>27.8 kg/m2</td><td>27.8 kg/m2</td></tr><tr><td>Diastolic Blood Pressure</td><td>66 mm[Hg]</td><td>66 mm[Hg]</td></tr><tr><td>Systolic Blood Pressure</td><td>98 mm[Hg]</td><td>90 mm[Hg]</td></tr><tr><td>Heart rate</td><td>100 /min</td><td>75 /min</td></tr><tr><td>Respiratory rate</td><td>15 /min</td><td>14 /min</td></tr></table></div>"
            },
            "entry": [
              {
                "reference": "urn:uuid:dc0feca7-685e-4565-acb8-d7435a33d6fe"
              }
            ],
            "code": {
              "coding": [
                {
                  "system": "http://loinc.org",
                  "code": "8716-3",
                  "display": "Vital signs note"
                }
              ]
            },
            "title": "Vital Signs"
          },
          {
            "text": {
              "status": "generated",
              "div": "<div xmlns=\"http://www.w3.org/1999/xhtml\"><table class=\"hl7__ips\"><table class=\"hl7__ips\"><thead><tr><th>Recent Lab Observations</th><th>30-JUL-2024</th><th>Reference&#xA0;Range</th><th>Unit</th></tr></thead><tbody><tr><td>Hemoglobin A1c/Hemoglobin.total in Blood</td><td><strong>6.1 H</strong></td><td>4.3 - 6</td><td>%</td></tr><tr><td>Glucose [Mass/volume] in Blood</td><td><strong>69.4 L</strong></td><td>70 - 140</td><td>mg/dL</td></tr><tr><td>Urea nitrogen [Mass/volume] in Blood</td><td>8.1</td><td>7 - 20</td><td>mg/dL</td></tr><tr><td>Creatinine [Mass/volume] in Blood</td><td><strong>0.7 L</strong></td><td>0.9 - 1.3</td><td>mg/dL</td></tr><tr><td>Calcium [Mass/volume] in Blood</td><td>9.9</td><td>8.5 - 10.5</td><td>mg/dL</td></tr><tr><td>Sodium [Moles/volume] in Blood</td><td>142.3</td><td>135 - 145</td><td>mmol/L</td></tr><tr><td>Potassium [Moles/volume] in Blood</td><td>4.6</td><td>3.5 - 5.1</td><td>mmol/L</td></tr><tr><td>Chloride [Moles/volume] in Blood</td><td>103.6</td><td>98 - 108</td><td>mmol/L</td></tr><tr><td>Carbon dioxide, total [Moles/volume] in Blood</td><td>22.7</td><td>22 - 29</td><td>mmol/L</td></tr><tr><td>Leukocytes [#/volume] in Blood by Automated count</td><td>8.9</td><td>3.4 - 10.6</td><td>10*3/uL</td></tr><tr><td>Erythrocytes [#/volume] in Blood by Automated count</td><td>5.1</td><td>4.2 - 6.2</td><td>10*6/uL</td></tr><tr><td>Hemoglobin [Mass/volume] in Blood</td><td><strong>13.6 L</strong></td><td>13.8 - 17.5</td><td>g/dL</td></tr><tr><td>Hematocrit [Volume Fraction] of Blood by Automated count</td><td>39.0</td><td>38 - 50</td><td>%</td></tr><tr><td>MCV [Entitic volume] by Automated count</td><td>80.7</td><td>76 - 98</td><td>fL</td></tr><tr><td>MCH [Entitic mass] by Automated count</td><td>27.0</td><td>27 - 34</td><td>pg</td></tr><tr><td>MCHC [Mass/volume] by Automated count</td><td>34.5</td><td>31 - 37</td><td>g/dL</td></tr><tr><td>Erythrocyte distribution width [Entitic volume] by Automated count</td><td>39.4</td><td>36 - 56</td><td>fL</td></tr><tr><td>Platelets [#/volume] in Blood by Automated count</td><td><strong>370.5 H</strong></td><td>150 - 363</td><td>10*3/uL</td></tr><tr><td>Platelet distribution width [Entitic volume] in Blood by Automated count</td><td><strong>392.6 H</strong></td><td>13.4 - 17.4</td><td>fL</td></tr><tr><td>Platelet mean volume [Entitic volume] in Blood by Automated count</td><td>10.2</td><td>7.2 - 13.5</td><td>fL</td></tr></tbody></table></table></div>"
            },
            "title": "Relevant diagnostic tests/laboratory data",
            "code": {
              "coding": [
                {
                  "code": "30954-2",
                  "system": "http://loinc.org",
                  "display": "Relevant diagnostic tests/laboratory data note"
                }
              ]
            }
          },
          {
            "text": {
              "status": "generated",
              "div": "<div xmlns=\"http://www.w3.org/1999/xhtml\"><table class=\"hl7__ips\"><tr><th>Device</th><th>Date (since)</th></tr><tr><td>Blood glucose meter (physical object)</td><td><span class=\"nb\">13-Jan-1981</span></td></tr></table></div>"
            },
            "entry": [
              {
                "reference": "urn:uuid:9ba8ffdb-9063-4e9c-b2a3-6dfacd5bb841"
              }
            ],
            "code": {
              "coding": [
                {
                  "system": "http://loinc.org",
                  "code": "46264-8",
                  "display": "History of medical device use"
                }
              ]
            },
            "title": "Device Use"
          }
        ],
        "title": "European Patient Summary",
        "status": "final",
        "subject": {
          "reference": "urn:uuid:22269813-b776-4294-9232-28af3001c619",
          "display": "Krisztián Balogh"
        },
        "custodian": {
          "reference": "urn:uuid:d038cf9b-b161-493b-8182-2d453a3ae359"
        },
        "date": "2024-07-30",
        "confidentiality": "N"
      }
    },
    {
      "fullUrl": "urn:uuid:22269813-b776-4294-9232-28af3001c619",
      "resource": {
        "resourceType": "Patient",
        "id": "22269813-b776-4294-9232-28af3001c619",
        "meta": {
          "security": [
            {
              "system": "http://terminology.hl7.org/CodeSystem/v3-ActReason",
              "code": "HTEST"
            },
            {
              "system": "http://terminology.hl7.org/CodeSystem/v3-ActReason",
              "code": "TRAIN"
            }
          ],
          "tag": [
            {
              "system": "https://synderai.net/fhir/CodeSystem/tags",
              "code": "synthetic",
              "display": "SYNDERAI Synthetic data"
            }
          ],
          "profile": [
            "http://hl7.eu/fhir/eps/StructureDefinition/patient-eu-eps"
          ]
        },
        "identifier": [
          {
            "type": {
              "coding": [
                {
                  "code": "PT",
                  "system": "http://terminology.hl7.org/CodeSystem/v2-0203"
                }
              ]
            },
            "system": "http://ec.europa.eu/identifier/eci",
            "value": "8637-112774-6"
          },
          {
            "type": {
              "coding": [
                {
                  "code": "MR",
                  "system": "http://terminology.hl7.org/CodeSystem/v2-0203"
                }
              ]
            },
            "system": "http://local.setting.eu/identifier",
            "value": "6e5540d5-6c5f-a75f-44a8-63200c24ee23"
          }
        ],
        "name": [
          {
            "given": [
              "Krisztián"
            ],
            "family": "Balogh",
            "text": "Krisztián Balogh"
          }
        ],
        "address": [
          {
            "line": [
              "Szabadság utca 2."
            ],
            "use": "home",
            "type": "physical",
            "postalCode": "6767",
            "city": "Mindszentvég",
            "country": "Hungary"
          }
        ],
        "telecom": [
          {
            "system": "phone",
            "value": "06-06/760 8753"
          }
        ],
        "extension": [
          {
            "url": "http://hl7.org/fhir/StructureDefinition/patient-nationality",
            "valueCodeableConcept": {
              "coding": [
                {
                  "code": "HU",
                  "system": "http://hl7.org/fhir/ValueSet/country"
                }
              ]
            }
          }
        ],
        "text": {
          "status": "generated",
          "div": "<div xmlns=\"http://www.w3.org/1999/xhtml\"><table class=\"hl7__ips\"><tr><td>Krisztián Balogh</td><td>male</td><td>09-Apr-1939</td></tr></table></div>"
        },
        "gender": "male",
        "birthDate": "1939-04-09"
      }
    },
    {
      "fullUrl": "urn:uuid:4a374c03-915b-4457-b698-01c21f0fa887",
      "resource": {
        "resourceType": "PractitionerRole",
        "id": "4a374c03-915b-4457-b698-01c21f0fa887",
        "meta": {
          "profile": [
            "http://hl7.eu/fhir/base/StructureDefinition/practitionerRole-eu"
          ]
        },
        "text": {
          "status": "generated",
          "div": "<div xmlns=\"http://www.w3.org/1999/xhtml\"><table class=\"hl7__ips\">Provider Role Id 4a374c03-915b-4457-b698-01c21f0fa887</table></div>"
        },
        "practitioner": {
          "reference": "urn:uuid:3b54f6f1-a0cd-475e-8da4-08c7bdfd0cbb"
        },
        "organization": {
          "reference": "urn:uuid:d038cf9b-b161-493b-8182-2d453a3ae359"
        }
      }
    },
    {
      "fullUrl": "urn:uuid:d038cf9b-b161-493b-8182-2d453a3ae359",
      "resource": {
        "resourceType": "Organization",
        "id": "d038cf9b-b161-493b-8182-2d453a3ae359",
        "meta": {
          "profile": [
            "http://hl7.eu/fhir/base/StructureDefinition/organization-eu"
          ]
        },
        "identifier": [
          {
            "assigner": {
              "display": "HL7 Europe"
            },
            "system": "urn:oid:2.16.840.1.113883.2.51.999",
            "value": "b79bca82-37fd-4b28-8f7d-32929ca28495"
          }
        ],
        "address": [
          {
            "city": "Szeged",
            "postalCode": "6720",
            "country": "Hungary"
          }
        ],
        "text": {
          "status": "generated",
          "div": "<div xmlns=\"http://www.w3.org/1999/xhtml\"><table class=\"hl7__ips\">Szeged MJV Önkormányzatának Kórháza</table></div>"
        },
        "name": "Szeged MJV Önkormányzatának Kórháza"
      }
    },
    {
      "fullUrl": "urn:uuid:3b54f6f1-a0cd-475e-8da4-08c7bdfd0cbb",
      "resource": {
        "resourceType": "Practitioner",
        "id": "3b54f6f1-a0cd-475e-8da4-08c7bdfd0cbb",
        "meta": {
          "profile": [
            "http://hl7.eu/fhir/base/StructureDefinition/practitioner-eu"
          ]
        },
        "name": [
          {
            "prefix": [
              "Dr."
            ],
            "given": [
              "Hel"
            ],
            "family": "Ping"
          }
        ],
        "text": {
          "status": "generated",
          "div": "<div xmlns=\"http://www.w3.org/1999/xhtml\"><table class=\"hl7__ips\">Dr. Hel Ping</table></div>"
        }
      }
    },
    {
      "fullUrl": "urn:uuid:26c5287b-f26a-4594-8750-a300dc6074a9",
      "resource": {
        "resourceType": "Condition",
        "id": "26c5287b-f26a-4594-8750-a300dc6074a9",
        "meta": {
          "profile": [
            "http://hl7.org/fhir/uv/ips/StructureDefinition/Condition-uv-ips"
          ]
        },
        "category": [
          {
            "coding": [
              {
                "code": "problem-list-item",
                "system": "http://terminology.hl7.org/CodeSystem/condition-category",
                "display": "Problem List Item"
              }
            ]
          }
        ],
        "code": {
          "coding": [
            {
              "code": "26929004",
              "system": "http://snomed.info/sct",
              "display": "Alzheimer&#039;s disease (disorder)"
            }
          ],
          "text": "Alzheimer&#039;s disease"
        },
        "text": {
          "status": "generated",
          "div": "<div xmlns=\"http://www.w3.org/1999/xhtml\"><table class=\"hl7__ips\"><tr><td>Alzheimer's disease</td><td><span class=\"nb\">19-Jul-2022</span></td><td>active</td></tr></table></div>"
        },
        "onsetDateTime": "2022-07-19",
        "subject": {
          "reference": "urn:uuid:22269813-b776-4294-9232-28af3001c619",
          "display": "Krisztián Balogh"
        },
        "asserter": {
          "reference": "urn:uuid:4a374c03-915b-4457-b698-01c21f0fa887",
          "display": "Szeged MJV Önkormányzatának Kórháza"
        }
      }
    },
    {
      "fullUrl": "urn:uuid:4d46fc8d-3b5f-4fbc-a1c4-cd9815ea9a84",
      "resource": {
        "resourceType": "Condition",
        "id": "4d46fc8d-3b5f-4fbc-a1c4-cd9815ea9a84",
        "meta": {
          "profile": [
            "http://hl7.org/fhir/uv/ips/StructureDefinition/Condition-uv-ips"
          ]
        },
        "category": [
          {
            "coding": [
              {
                "code": "problem-list-item",
                "system": "http://terminology.hl7.org/CodeSystem/condition-category",
                "display": "Problem List Item"
              }
            ]
          }
        ],
        "code": {
          "coding": [
            {
              "code": "414545008",
              "system": "http://snomed.info/sct",
              "display": "Ischemic heart disease (disorder)"
            }
          ],
          "text": "Ischemic heart disease"
        },
        "text": {
          "status": "generated",
          "div": "<div xmlns=\"http://www.w3.org/1999/xhtml\"><table class=\"hl7__ips\"><tr><td>Ischemic heart disease</td><td><span class=\"nb\">05-May-2009</span></td><td>active</td></tr></table></div>"
        },
        "onsetDateTime": "2009-05-05",
        "subject": {
          "reference": "urn:uuid:22269813-b776-4294-9232-28af3001c619",
          "display": "Krisztián Balogh"
        },
        "asserter": {
          "reference": "urn:uuid:4a374c03-915b-4457-b698-01c21f0fa887",
          "display": "Szeged MJV Önkormányzatának Kórháza"
        }
      }
    },
    {
      "fullUrl": "urn:uuid:0cd11f2a-886c-4ed3-bd35-24b054bf8d91",
      "resource": {
        "resourceType": "Condition",
        "id": "0cd11f2a-886c-4ed3-bd35-24b054bf8d91",
        "meta": {
          "profile": [
            "http://hl7.org/fhir/uv/ips/StructureDefinition/Condition-uv-ips"
          ]
        },
        "category": [
          {
            "coding": [
              {
                "code": "problem-list-item",
                "system": "http://terminology.hl7.org/CodeSystem/condition-category",
                "display": "Problem List Item"
              }
            ]
          }
        ],
        "code": {
          "coding": [
            {
              "code": "60573004",
              "system": "http://snomed.info/sct",
              "display": "Aortic valve stenosis (disorder)"
            }
          ],
          "text": "Aortic valve stenosis"
        },
        "text": {
          "status": "generated",
          "div": "<div xmlns=\"http://www.w3.org/1999/xhtml\"><table class=\"hl7__ips\"><tr><td>Aortic valve stenosis</td><td><span class=\"nb\">13-Dec-2000</span></td><td>active</td></tr></table></div>"
        },
        "onsetDateTime": "2000-12-13",
        "subject": {
          "reference": "urn:uuid:22269813-b776-4294-9232-28af3001c619",
          "display": "Krisztián Balogh"
        },
        "asserter": {
          "reference": "urn:uuid:4a374c03-915b-4457-b698-01c21f0fa887",
          "display": "Szeged MJV Önkormányzatának Kórháza"
        }
      }
    },
    {
      "fullUrl": "urn:uuid:568091b5-248b-4e3c-b755-f68413df839c",
      "resource": {
        "resourceType": "Condition",
        "id": "568091b5-248b-4e3c-b755-f68413df839c",
        "meta": {
          "profile": [
            "http://hl7.org/fhir/uv/ips/StructureDefinition/Condition-uv-ips"
          ]
        },
        "category": [
          {
            "coding": [
              {
                "code": "problem-list-item",
                "system": "http://terminology.hl7.org/CodeSystem/condition-category",
                "display": "Problem List Item"
              }
            ]
          }
        ],
        "code": {
          "coding": [
            {
              "code": "271737000",
              "system": "http://snomed.info/sct",
              "display": "Anemia (disorder)"
            }
          ],
          "text": "Anemia"
        },
        "text": {
          "status": "generated",
          "div": "<div xmlns=\"http://www.w3.org/1999/xhtml\"><table class=\"hl7__ips\"><tr><td>Anemia</td><td><span class=\"nb\">08-Feb-1994</span></td><td>active</td></tr></table></div>"
        },
        "onsetDateTime": "1994-02-08",
        "subject": {
          "reference": "urn:uuid:22269813-b776-4294-9232-28af3001c619",
          "display": "Krisztián Balogh"
        },
        "asserter": {
          "reference": "urn:uuid:4a374c03-915b-4457-b698-01c21f0fa887",
          "display": "Szeged MJV Önkormányzatának Kórháza"
        }
      }
    },
    {
      "fullUrl": "urn:uuid:48255e91-056d-4254-b6e1-4a9f65b0c7a8",
      "resource": {
        "resourceType": "Condition",
        "id": "48255e91-056d-4254-b6e1-4a9f65b0c7a8",
        "meta": {
          "profile": [
            "http://hl7.org/fhir/uv/ips/StructureDefinition/Condition-uv-ips"
          ]
        },
        "category": [
          {
            "coding": [
              {
                "code": "problem-list-item",
                "system": "http://terminology.hl7.org/CodeSystem/condition-category",
                "display": "Problem List Item"
              }
            ]
          }
        ],
        "code": {
          "coding": [
            {
              "code": "15777000",
              "system": "http://snomed.info/sct",
              "display": "Prediabetes (disorder)"
            }
          ],
          "text": "Prediabetes"
        },
        "text": {
          "status": "generated",
          "div": "<div xmlns=\"http://www.w3.org/1999/xhtml\"><table class=\"hl7__ips\"><tr><td>Prediabetes</td><td><span class=\"nb\">13-Jan-1981</span></td><td>active</td></tr></table></div>"
        },
        "onsetDateTime": "1981-01-13",
        "subject": {
          "reference": "urn:uuid:22269813-b776-4294-9232-28af3001c619",
          "display": "Krisztián Balogh"
        },
        "asserter": {
          "reference": "urn:uuid:4a374c03-915b-4457-b698-01c21f0fa887",
          "display": "Szeged MJV Önkormányzatának Kórháza"
        }
      }
    },
    {
      "fullUrl": "urn:uuid:f39856c3-978f-4125-a122-60eb21047caf",
      "resource": {
        "resourceType": "Condition",
        "id": "f39856c3-978f-4125-a122-60eb21047caf",
        "meta": {
          "profile": [
            "http://hl7.org/fhir/uv/ips/StructureDefinition/Condition-uv-ips"
          ]
        },
        "category": [
          {
            "coding": [
              {
                "code": "problem-list-item",
                "system": "http://terminology.hl7.org/CodeSystem/condition-category",
                "display": "Problem List Item"
              }
            ]
          }
        ],
        "code": {
          "coding": [
            {
              "code": "65363002",
              "system": "http://snomed.info/sct",
              "display": "Otitis media (disorder)"
            }
          ],
          "text": "Otitis media"
        },
        "text": {
          "status": "generated",
          "div": "<div xmlns=\"http://www.w3.org/1999/xhtml\"><table class=\"hl7__ips\"><tr><td><span class=\"grayedout\">Otitis media</span></td><td><span class=\"nb\">14-Jul-2020 - 13-Jul-2021</span></td><td><span class=\"grayedout\">inactive</span></td></tr></table></div>"
        },
        "onsetDateTime": "2020-07-14",
        "abatementDateTime": "2021-07-13",
        "subject": {
          "reference": "urn:uuid:22269813-b776-4294-9232-28af3001c619",
          "display": "Krisztián Balogh"
        },
        "asserter": {
          "reference": "urn:uuid:4a374c03-915b-4457-b698-01c21f0fa887",
          "display": "Szeged MJV Önkormányzatának Kórháza"
        }
      }
    },
    {
      "fullUrl": "urn:uuid:704ddfaf-cab9-4816-8244-e18d6afe34e4",
      "resource": {
        "resourceType": "Condition",
        "id": "704ddfaf-cab9-4816-8244-e18d6afe34e4",
        "meta": {
          "profile": [
            "http://hl7.org/fhir/uv/ips/StructureDefinition/Condition-uv-ips"
          ]
        },
        "category": [
          {
            "coding": [
              {
                "code": "problem-list-item",
                "system": "http://terminology.hl7.org/CodeSystem/condition-category",
                "display": "Problem List Item"
              }
            ]
          }
        ],
        "code": {
          "coding": [
            {
              "code": "444814009",
              "system": "http://snomed.info/sct",
              "display": "Viral sinusitis (disorder)"
            }
          ],
          "text": "Viral sinusitis"
        },
        "text": {
          "status": "generated",
          "div": "<div xmlns=\"http://www.w3.org/1999/xhtml\"><table class=\"hl7__ips\"><tr><td><span class=\"grayedout\">Viral sinusitis</span></td><td><span class=\"nb\">11-Apr-2020 - 30-Apr-2020</span></td><td><span class=\"grayedout\">inactive</span></td></tr></table></div>"
        },
        "onsetDateTime": "2020-04-11",
        "abatementDateTime": "2020-04-30",
        "subject": {
          "reference": "urn:uuid:22269813-b776-4294-9232-28af3001c619",
          "display": "Krisztián Balogh"
        },
        "asserter": {
          "reference": "urn:uuid:4a374c03-915b-4457-b698-01c21f0fa887",
          "display": "Szeged MJV Önkormányzatának Kórháza"
        }
      }
    },
    {
      "fullUrl": "urn:uuid:8242ad95-2cca-407f-8ddc-0cbe6b800940",
      "resource": {
        "resourceType": "Condition",
        "id": "8242ad95-2cca-407f-8ddc-0cbe6b800940",
        "meta": {
          "profile": [
            "http://hl7.org/fhir/uv/ips/StructureDefinition/Condition-uv-ips"
          ]
        },
        "category": [
          {
            "coding": [
              {
                "code": "problem-list-item",
                "system": "http://terminology.hl7.org/CodeSystem/condition-category",
                "display": "Problem List Item"
              }
            ]
          }
        ],
        "code": {
          "coding": [
            {
              "code": "10509002",
              "system": "http://snomed.info/sct",
              "display": "Acute bronchitis (disorder)"
            }
          ],
          "text": "Acute bronchitis"
        },
        "text": {
          "status": "generated",
          "div": "<div xmlns=\"http://www.w3.org/1999/xhtml\"><table class=\"hl7__ips\"><tr><td><span class=\"grayedout\">Acute bronchitis</span></td><td><span class=\"nb\">13-Oct-2015 - 23-Oct-2015</span></td><td><span class=\"grayedout\">inactive</span></td></tr></table></div>"
        },
        "onsetDateTime": "2015-10-13",
        "abatementDateTime": "2015-10-23",
        "subject": {
          "reference": "urn:uuid:22269813-b776-4294-9232-28af3001c619",
          "display": "Krisztián Balogh"
        },
        "asserter": {
          "reference": "urn:uuid:4a374c03-915b-4457-b698-01c21f0fa887",
          "display": "Szeged MJV Önkormányzatának Kórháza"
        }
      }
    },
    {
      "fullUrl": "urn:uuid:7f3caa08-4800-4576-951f-a727609ba96d",
      "resource": {
        "resourceType": "Condition",
        "id": "7f3caa08-4800-4576-951f-a727609ba96d",
        "meta": {
          "profile": [
            "http://hl7.org/fhir/uv/ips/StructureDefinition/Condition-uv-ips"
          ]
        },
        "category": [
          {
            "coding": [
              {
                "code": "problem-list-item",
                "system": "http://terminology.hl7.org/CodeSystem/condition-category",
                "display": "Problem List Item"
              }
            ]
          }
        ],
        "code": {
          "coding": [
            {
              "code": "45816000",
              "system": "http://snomed.info/sct",
              "display": "Pyelonephritis (disorder)"
            }
          ],
          "text": "Pyelonephritis"
        },
        "text": {
          "status": "generated",
          "div": "<div xmlns=\"http://www.w3.org/1999/xhtml\"><table class=\"hl7__ips\"><tr><td><span class=\"grayedout\">Pyelonephritis</span></td><td><span class=\"nb\">28-Aug-2015 - 30-Aug-2015</span></td><td><span class=\"grayedout\">inactive</span></td></tr></table></div>"
        },
        "onsetDateTime": "2015-08-28",
        "abatementDateTime": "2015-08-30",
        "subject": {
          "reference": "urn:uuid:22269813-b776-4294-9232-28af3001c619",
          "display": "Krisztián Balogh"
        },
        "asserter": {
          "reference": "urn:uuid:4a374c03-915b-4457-b698-01c21f0fa887",
          "display": "Szeged MJV Önkormányzatának Kórháza"
        }
      }
    },
    {
      "fullUrl": "urn:uuid:ce8ffd63-6645-4263-967f-adc9e6b3406d",
      "resource": {
        "resourceType": "MedicationStatement",
        "id": "ce8ffd63-6645-4263-967f-adc9e6b3406d",
        "meta": {
          "profile": [
            "http://hl7.eu/fhir/eps/StructureDefinition/MedicationStatement-eu-eps"
          ]
        },
        "effectivePeriod": {
          "extension": [
            {
              "url": "http://hl7.org/fhir/StructureDefinition/data-absent-reason",
              "valueCode": "unknown"
            }
          ]
        },
        "status": "active",
        "medicationCodeableConcept": {
          "coding": [
            {
              "code": "787481004",
              "system": "http://snomed.info/sct",
              "display": "No known medications (situation)"
            }
          ]
        },
        "subject": {
          "reference": "urn:uuid:22269813-b776-4294-9232-28af3001c619",
          "display": "Krisztián Balogh"
        }
      }
    },
    {
      "fullUrl": "urn:uuid:ba3be7a2-57f6-4a9b-9e4d-11fc415adeba",
      "resource": {
        "resourceType": "Immunization",
        "id": "ba3be7a2-57f6-4a9b-9e4d-11fc415adeba",
        "meta": {
          "profile": [
            "http://hl7.org/fhir/uv/ips/StructureDefinition/Immunization-uv-ips"
          ]
        },
        "vaccineCode": {
          "coding": [
            {
              "code": "1181000221105",
              "system": "http://snomed.info/sct",
              "display": "Vaccine product containing Influenza virus antigen"
            },
            {
              "code": "J07BB02",
              "system": "http://www.whocc.no/atc",
              "display": "Influenza, inactivated, split virus"
            }
          ],
          "text": "Influenza virus antigen only vaccine product"
        },
        "site": {
          "coding": [
            {
              "code": "244979005",
              "system": "http://snomed.info/sct",
              "display": "Entire muscle of upper arm"
            }
          ],
          "text": "Entire muscle of upper arm"
        },
        "route": {
          "coding": [
            {
              "code": "78421000",
              "system": "http://snomed.info/sct",
              "display": "Intramuscular route"
            }
          ],
          "text": "Intramuscular route"
        },
        "text": {
          "status": "generated",
          "div": "<div xmlns=\"http://www.w3.org/1999/xhtml\"><table class=\"hl7__ips\"><tr><td>Influenza virus antigen only vaccine product</td><td><span class=\"nb\">30-Jul-2024</span></td></tr></table></div>"
        },
        "status": "completed",
        "patient": {
          "reference": "urn:uuid:22269813-b776-4294-9232-28af3001c619",
          "display": "Krisztián Balogh"
        },
        "occurrenceDateTime": "2024-07-30",
        "lotNumber": "FM-t9IqYhu4J",
        "expirationDate": "2025-03-17"
      }
    },
    {
      "fullUrl": "urn:uuid:ee8bbf17-02ca-4e49-9af2-8f407c34a458",
      "resource": {
        "resourceType": "Immunization",
        "id": "ee8bbf17-02ca-4e49-9af2-8f407c34a458",
        "meta": {
          "profile": [
            "http://hl7.org/fhir/uv/ips/StructureDefinition/Immunization-uv-ips"
          ]
        },
        "vaccineCode": {
          "coding": [
            {
              "code": "1119349007",
              "system": "http://snomed.info/sct",
              "display": "Vaccine product containing SARS-CoV-2 mRNA"
            },
            {
              "code": "J07BX03",
              "system": "http://www.whocc.no/atc",
              "display": "COVID-19 mRNA vaccines"
            }
          ],
          "text": "SARS-CoV-2 mRNA vaccine"
        },
        "site": {
          "coding": [
            {
              "code": "244979005",
              "system": "http://snomed.info/sct",
              "display": "Entire muscle of upper arm"
            }
          ],
          "text": "Entire muscle of upper arm"
        },
        "route": {
          "coding": [
            {
              "code": "78421000",
              "system": "http://snomed.info/sct",
              "display": "Intramuscular route"
            }
          ],
          "text": "Intramuscular route"
        },
        "text": {
          "status": "generated",
          "div": "<div xmlns=\"http://www.w3.org/1999/xhtml\"><table class=\"hl7__ips\"><tr><td>SARS-CoV-2 mRNA vaccine</td><td><span class=\"nb\">11-May-2021</span></td></tr></table></div>"
        },
        "status": "completed",
        "patient": {
          "reference": "urn:uuid:22269813-b776-4294-9232-28af3001c619",
          "display": "Krisztián Balogh"
        },
        "occurrenceDateTime": "2021-05-11",
        "lotNumber": "HT-hGoNXE",
        "expirationDate": "2021-09-25"
      }
    },
    {
      "fullUrl": "urn:uuid:fad85cb1-14a2-49bf-9c37-6de28a57d36f",
      "resource": {
        "resourceType": "Immunization",
        "id": "fad85cb1-14a2-49bf-9c37-6de28a57d36f",
        "meta": {
          "profile": [
            "http://hl7.org/fhir/uv/ips/StructureDefinition/Immunization-uv-ips"
          ]
        },
        "vaccineCode": {
          "coding": [
            {
              "code": "777725002",
              "system": "http://snomed.info/sct",
              "display": "Vaccine product containing only Clostridium tetani toxoid antigen adsorbed"
            },
            {
              "code": "J07AM51",
              "system": "http://www.whocc.no/atc",
              "display": "Diphtheria-tetanus vaccines, adult type"
            }
          ],
          "text": "Clostridium tetani toxoid antigen adsorbed only vaccine product"
        },
        "site": {
          "coding": [
            {
              "code": "244979005",
              "system": "http://snomed.info/sct",
              "display": "Entire muscle of upper arm"
            }
          ],
          "text": "Entire muscle of upper arm"
        },
        "route": {
          "coding": [
            {
              "code": "78421000",
              "system": "http://snomed.info/sct",
              "display": "Intramuscular route"
            }
          ],
          "text": "Intramuscular route"
        },
        "text": {
          "status": "generated",
          "div": "<div xmlns=\"http://www.w3.org/1999/xhtml\"><table class=\"hl7__ips\"><tr><td>Clostridium tetani toxoid antigen adsorbed only vaccine product</td><td><span class=\"nb\">26-Jun-2018</span></td></tr></table></div>"
        },
        "status": "completed",
        "patient": {
          "reference": "urn:uuid:22269813-b776-4294-9232-28af3001c619",
          "display": "Krisztián Balogh"
        },
        "occurrenceDateTime": "2018-06-26",
        "lotNumber": "ZJ-os5t9GlJ",
        "expirationDate": "2018-10-13"
      }
    },
    {
      "fullUrl": "urn:uuid:86de0043-a041-4228-814d-b6743e9ff168",
      "resource": {
        "resourceType": "Procedure",
        "id": "86de0043-a041-4228-814d-b6743e9ff168",
        "meta": {
          "profile": [
            "http://hl7.org/fhir/uv/ips/StructureDefinition/Procedure-uv-ips"
          ]
        },
        "code": {
          "coding": [
            {
              "code": "58000006",
              "system": "http://snomed.info/sct",
              "display": "Patient discharge (procedure)"
            }
          ],
          "text": "Patient discharge"
        },
        "text": {
          "status": "generated",
          "div": "<div xmlns=\"http://www.w3.org/1999/xhtml\"><table class=\"hl7__ips\"><tr><td>Patient discharge</td><td><span class=\"nb\">14-Jan-2022</span></td><td>-</td></tr></table></div>"
        },
        "status": "completed",
        "performedDateTime": "2022-01-14",
        "subject": {
          "reference": "urn:uuid:22269813-b776-4294-9232-28af3001c619",
          "display": "Krisztián Balogh"
        }
      }
    },
    {
      "fullUrl": "urn:uuid:148d3603-d3a1-4a5e-b09d-66c8c7d35d21",
      "resource": {
        "resourceType": "Procedure",
        "id": "148d3603-d3a1-4a5e-b09d-66c8c7d35d21",
        "meta": {
          "profile": [
            "http://hl7.org/fhir/uv/ips/StructureDefinition/Procedure-uv-ips"
          ]
        },
        "code": {
          "coding": [
            {
              "code": "385763009",
              "system": "http://snomed.info/sct",
              "display": "Hospice care (regime/therapy)"
            }
          ],
          "text": "Hospice care"
        },
        "text": {
          "status": "generated",
          "div": "<div xmlns=\"http://www.w3.org/1999/xhtml\"><table class=\"hl7__ips\"><tr><td>Hospice care</td><td><span class=\"nb\">13-Jan-2022</span></td><td>-</td></tr></table></div>"
        },
        "status": "completed",
        "performedDateTime": "2022-01-13",
        "subject": {
          "reference": "urn:uuid:22269813-b776-4294-9232-28af3001c619",
          "display": "Krisztián Balogh"
        }
      }
    },
    {
      "fullUrl": "urn:uuid:90116a60-97ca-49d9-b042-62ab9e5a6ef1",
      "resource": {
        "resourceType": "Procedure",
        "id": "90116a60-97ca-49d9-b042-62ab9e5a6ef1",
        "meta": {
          "profile": [
            "http://hl7.org/fhir/uv/ips/StructureDefinition/Procedure-uv-ips"
          ]
        },
        "code": {
          "coding": [
            {
              "code": "185087000",
              "system": "http://snomed.info/sct",
              "display": "Notifications (procedure)"
            }
          ],
          "text": "Notifications"
        },
        "text": {
          "status": "generated",
          "div": "<div xmlns=\"http://www.w3.org/1999/xhtml\"><table class=\"hl7__ips\"><tr><td>Notifications</td><td><span class=\"nb\">04-Jan-2022</span></td><td>-</td></tr></table></div>"
        },
        "status": "completed",
        "performedDateTime": "2022-01-04",
        "subject": {
          "reference": "urn:uuid:22269813-b776-4294-9232-28af3001c619",
          "display": "Krisztián Balogh"
        }
      }
    },
    {
      "fullUrl": "urn:uuid:4af9a002-cdac-4ba4-8fa7-5e0c03d02cde",
      "resource": {
        "resourceType": "Procedure",
        "id": "4af9a002-cdac-4ba4-8fa7-5e0c03d02cde",
        "meta": {
          "profile": [
            "http://hl7.org/fhir/uv/ips/StructureDefinition/Procedure-uv-ips"
          ]
        },
        "code": {
          "coding": [
            {
              "code": "310417005",
              "system": "http://snomed.info/sct",
              "display": "Certification procedure (procedure)"
            }
          ],
          "text": "Certification procedure"
        },
        "text": {
          "status": "generated",
          "div": "<div xmlns=\"http://www.w3.org/1999/xhtml\"><table class=\"hl7__ips\"><tr><td>Certification procedure</td><td><span class=\"nb\">04-Jan-2022</span></td><td>-</td></tr></table></div>"
        },
        "status": "completed",
        "performedDateTime": "2022-01-04",
        "subject": {
          "reference": "urn:uuid:22269813-b776-4294-9232-28af3001c619",
          "display": "Krisztián Balogh"
        }
      }
    },
    {
      "fullUrl": "urn:uuid:074496d4-bc71-406c-9e3f-193720d4cf00",
      "resource": {
        "resourceType": "Procedure",
        "id": "074496d4-bc71-406c-9e3f-193720d4cf00",
        "meta": {
          "profile": [
            "http://hl7.org/fhir/uv/ips/StructureDefinition/Procedure-uv-ips"
          ]
        },
        "code": {
          "coding": [
            {
              "code": "315639002",
              "system": "http://snomed.info/sct",
              "display": "Initial patient assessment (procedure)"
            }
          ],
          "text": "Initial patient assessment"
        },
        "text": {
          "status": "generated",
          "div": "<div xmlns=\"http://www.w3.org/1999/xhtml\"><table class=\"hl7__ips\"><tr><td>Initial patient assessment</td><td><span class=\"nb\">04-Jan-2022</span></td><td>-</td></tr></table></div>"
        },
        "status": "completed",
        "performedDateTime": "2022-01-04",
        "subject": {
          "reference": "urn:uuid:22269813-b776-4294-9232-28af3001c619",
          "display": "Krisztián Balogh"
        }
      }
    },
    {
      "fullUrl": "urn:uuid:64993162-9309-4332-8d33-f08e0de7bb05",
      "resource": {
        "resourceType": "Procedure",
        "id": "64993162-9309-4332-8d33-f08e0de7bb05",
        "meta": {
          "profile": [
            "http://hl7.org/fhir/uv/ips/StructureDefinition/Procedure-uv-ips"
          ]
        },
        "code": {
          "coding": [
            {
              "code": "370789001",
              "system": "http://snomed.info/sct",
              "display": "Development of individualized plan of care (procedure)"
            }
          ],
          "text": "Development of individualized plan of care"
        },
        "text": {
          "status": "generated",
          "div": "<div xmlns=\"http://www.w3.org/1999/xhtml\"><table class=\"hl7__ips\"><tr><td>Development of individualized plan of care</td><td><span class=\"nb\">04-Jan-2022</span></td><td>-</td></tr></table></div>"
        },
        "status": "completed",
        "performedDateTime": "2022-01-04",
        "subject": {
          "reference": "urn:uuid:22269813-b776-4294-9232-28af3001c619",
          "display": "Krisztián Balogh"
        }
      }
    },
    {
      "fullUrl": "urn:uuid:44704ee3-c0f4-4ad3-9c3c-0ee89c53a145",
      "resource": {
        "resourceType": "AllergyIntolerance",
        "id": "44704ee3-c0f4-4ad3-9c3c-0ee89c53a145",
        "meta": {
          "profile": [
            "http://hl7.eu/fhir/base/StructureDefinition/allergyIntolerance-eu-core"
          ]
        },
        "code": {
          "text": ""
        },
        "clinicalStatus": {
          "coding": [
            {
              "code": "active",
              "system": "http://terminology.hl7.org/CodeSystem/allergyintolerance-clinical"
            }
          ]
        },
        "text": {
          "status": "generated",
          "div": "<div xmlns=\"http://www.w3.org/1999/xhtml\"><table class=\"hl7__ips\"><tr><th>Allergy/Intolerance</th><th>Onset Date</th><th>Status</th><th>Type</th><th>Reaction</th></tr><tr><td></td><td>?</td><td>active</td><td>?</td><td></td></tr></table></div>"
        },
        "verificationStatus": {
          "coding": [
            {
              "code": "confirmed",
              "system": "http://terminology.hl7.org/CodeSystem/allergyintolerance-verification"
            }
          ]
        },
        "patient": {
          "reference": "urn:uuid:22269813-b776-4294-9232-28af3001c619",
          "display": "Krisztián Balogh"
        },
        "_onsetDateTime": {
          "extension": [
            {
              "url": "http://hl7.org/fhir/StructureDefinition/data-absent-reason",
              "valueCode": "unknown"
            }
          ]
        }
      }
    },
    {
      "fullUrl": "urn:uuid:17aed7b5-a614-47ae-b57d-c3d3fd51dc1f",
      "resource": {
        "resourceType": "CarePlan",
        "id": "17aed7b5-a614-47ae-b57d-c3d3fd51dc1f",
        "category": [
          {
            "coding": [
              {
                "code": "assess-plan",
                "system": "http://terminology.hl7.org/CodeSystem/care-plan-category",
                "display": "Assessment and Plan"
              }
            ]
          }
        ],
        "activity": [
          {
            "detail": {
              "code": {
                "coding": [
                  {
                    "code": "386257007",
                    "system": "http://snomed.info/sct",
                    "display": "Dementia management (regime/therapy)"
                  }
                ]
              },
              "reasonCode": [
                {
                  "coding": [
                    {
                      "code": "26929004",
                      "system": "http://snomed.info/sct",
                      "display": "Alzheimer&#039;s disease (disorder)"
                    }
                  ]
                }
              ],
              "status": "unknown",
              "description": "Dementia management",
              "kind": "Appointment"
            }
          }
        ],
        "period": {
          "start": "2022-07-19"
        },
        "goal": [
          {
            "reference": "urn:uuid:a782cff6-7ba9-40ea-b789-35ae19e46654"
          },
          {
            "reference": "urn:uuid:329fad0d-581b-4c8f-b856-c7cff40d4e01"
          },
          {
            "reference": "urn:uuid:52d5c9d1-2de6-49a0-8f1f-126cb3521469"
          },
          {
            "reference": "urn:uuid:e6306b1f-e7fb-4d9a-ba8a-0c3e5b64deaf"
          },
          {
            "reference": "urn:uuid:e1fa7c73-e12f-4ebb-a6e2-a5e943337cb1"
          }
        ],
        "text": {
          "status": "generated",
          "div": "<div xmlns=\"http://www.w3.org/1999/xhtml\"><table class=\"hl7__ips first25\"><tr><th>Active Planned Care / Goals</th><th>Start Date</th><th>Reason</th></tr><tr><td>Dementia management</td><td><span class=\"nb\">19-Jul-2022</span></td><td>Alzheimer's disease (disorder)</td></tr><tr><td><ul><li>Support maintenance of current cognitive abilities and slow progression of cognitive decline.</li><li>Enable patient to perform basic activities of daily living (ADLs) with minimal assistance.</li><li>Minimize frequency and severity of behavioral disturbances such as agitation, aggression, or wandering.</li><li>Ensure patient or caregiver administers prescribed dementia medications as directed.</li><li>Ensure caregiver receives education and support to manage dementia-related care needs.</li></ul></td><td></td><td></td></tr></table></div>"
        },
        "status": "active",
        "intent": "plan",
        "subject": {
          "reference": "urn:uuid:22269813-b776-4294-9232-28af3001c619",
          "display": "Krisztián Balogh"
        }
      }
    },
    {
      "fullUrl": "urn:uuid:91a89b05-5c41-4619-8e53-556e5a927b1d",
      "resource": {
        "resourceType": "CarePlan",
        "id": "91a89b05-5c41-4619-8e53-556e5a927b1d",
        "category": [
          {
            "coding": [
              {
                "code": "assess-plan",
                "system": "http://terminology.hl7.org/CodeSystem/care-plan-category",
                "display": "Assessment and Plan"
              }
            ]
          }
        ],
        "activity": [
          {
            "detail": {
              "code": {
                "coding": [
                  {
                    "code": "736372004",
                    "system": "http://snomed.info/sct",
                    "display": "Discharge care plan (record artifact)"
                  }
                ]
              },
              "reasonCode": [
                {
                  "coding": [
                    {
                      "code": "1231000119100",
                      "system": "http://snomed.info/sct",
                      "display": "History of aortic valve replacement (situation)"
                    }
                  ]
                }
              ],
              "status": "unknown",
              "description": "Discharge care plan",
              "kind": "Appointment"
            }
          }
        ],
        "period": {
          "start": "2007-11-08"
        },
        "goal": [
          {
            "reference": "urn:uuid:93c420cd-1949-4099-bf3a-02e01f58b6b4"
          },
          {
            "reference": "urn:uuid:b2dafa46-961f-474e-a145-2ff0a1f30d02"
          },
          {
            "reference": "urn:uuid:9f356ac6-f424-4a7e-b33f-3f49bb52bf1f"
          },
          {
            "reference": "urn:uuid:e3b85ccf-e73a-45d5-aab3-6224da4a821a"
          },
          {
            "reference": "urn:uuid:e4aaa9ac-6113-4835-b0ff-b918969f56da"
          },
          {
            "reference": "urn:uuid:bd016f29-26ef-4953-b177-929ab8fccc02"
          }
        ],
        "text": {
          "status": "generated",
          "div": "<div xmlns=\"http://www.w3.org/1999/xhtml\"><table class=\"hl7__ips first25\"><tr><th>Active Planned Care / Goals</th><th>Start Date</th><th>Reason</th></tr><tr><td>Discharge care plan</td><td><span class=\"nb\">08-Nov-2007</span></td><td>History of aortic valve replacement (situation)</td></tr><tr><td><ul><li>Patient and caregiver will demonstrate understanding of discharge instructions, including medication regimen, activity restrictions, and follow-up appointments.</li><li>All medications will be reviewed and reconciled to ensure accuracy and safety at discharge.</li><li>Discharge instructions will be communicated using strategies appropriate for cognitive impairment, with caregiver involvement.</li><li>Hemoglobin level will be maintained within the target range prior to discharge.</li><li>Fasting glucose will be maintained within the prediabetes range prior to discharge.</li><li>Patient will be hemodynamically stable with no new or worsening symptoms of ischemic heart disease or aortic valve dysfunction at discharge.</li></ul></td><td></td><td></td></tr></table></div>"
        },
        "status": "active",
        "intent": "plan",
        "subject": {
          "reference": "urn:uuid:22269813-b776-4294-9232-28af3001c619",
          "display": "Krisztián Balogh"
        }
      }
    },
    {
      "fullUrl": "urn:uuid:fe97c612-9a43-441a-a922-238005983df5",
      "resource": {
        "resourceType": "CarePlan",
        "id": "fe97c612-9a43-441a-a922-238005983df5",
        "category": [
          {
            "coding": [
              {
                "code": "assess-plan",
                "system": "http://terminology.hl7.org/CodeSystem/care-plan-category",
                "display": "Assessment and Plan"
              }
            ]
          }
        ],
        "activity": [
          {
            "detail": {
              "code": {
                "coding": [
                  {
                    "code": "734163000",
                    "system": "http://snomed.info/sct",
                    "display": "Care plan (record artifact)"
                  }
                ]
              },
              "reasonCode": [
                {
                  "coding": [
                    {
                      "code": "60573004",
                      "system": "http://snomed.info/sct",
                      "display": "Aortic valve stenosis (disorder)"
                    }
                  ]
                }
              ],
              "status": "unknown",
              "description": "Care plan",
              "kind": "Appointment"
            }
          }
        ],
        "period": {
          "start": "2007-10-04"
        },
        "goal": [
          {
            "reference": "urn:uuid:5813942c-a280-43c2-8ea5-066342f381a6"
          },
          {
            "reference": "urn:uuid:bff43141-2f93-4b8a-af55-fd21f649717f"
          },
          {
            "reference": "urn:uuid:4301b8b0-531b-4221-bc60-f69c160329f4"
          },
          {
            "reference": "urn:uuid:41755357-9154-4ce4-a3f9-5a5be5c6f408"
          }
        ],
        "text": {
          "status": "generated",
          "div": "<div xmlns=\"http://www.w3.org/1999/xhtml\"><table class=\"hl7__ips first25\"><tr><th>Active Planned Care / Goals</th><th>Start Date</th><th>Reason</th></tr><tr><td>Care plan</td><td><span class=\"nb\">04-Oct-2007</span></td><td>Aortic valve stenosis (disorder)</td></tr><tr><td><ul><li>Minimize dyspnea, fatigue, and chest pain related to aortic valve stenosis</li><li>Maintain systolic blood pressure below 140 mmHg</li><li>Maintain hemoglobin above 11 g/dL</li><li>Monitor B-type natriuretic peptide (BNP) to detect worsening heart failure</li></ul></td><td></td><td></td></tr></table></div>"
        },
        "status": "active",
        "intent": "plan",
        "subject": {
          "reference": "urn:uuid:22269813-b776-4294-9232-28af3001c619",
          "display": "Krisztián Balogh"
        }
      }
    },
    {
      "fullUrl": "urn:uuid:9de7b8bb-8cdd-4ded-b2b3-175dfd0bd659",
      "resource": {
        "resourceType": "CarePlan",
        "id": "9de7b8bb-8cdd-4ded-b2b3-175dfd0bd659",
        "category": [
          {
            "coding": [
              {
                "code": "assess-plan",
                "system": "http://terminology.hl7.org/CodeSystem/care-plan-category",
                "display": "Assessment and Plan"
              }
            ]
          }
        ],
        "activity": [
          {
            "detail": {
              "code": {
                "coding": [
                  {
                    "code": "698360004",
                    "system": "http://snomed.info/sct",
                    "display": "Diabetes self management plan (qualifier value)"
                  }
                ]
              },
              "reasonCode": [
                {
                  "coding": [
                    {
                      "code": "15777000",
                      "system": "http://snomed.info/sct",
                      "display": "Prediabetes"
                    }
                  ]
                }
              ],
              "status": "unknown",
              "description": "Diabetes self management plan",
              "kind": "Appointment"
            }
          }
        ],
        "period": {
          "start": "1981-01-13"
        },
        "goal": [
          {
            "reference": "urn:uuid:71f0a7da-2139-43b4-91ea-b085931f513c"
          },
          {
            "reference": "urn:uuid:2b4275b5-aa2c-45f1-8653-c695410e3ded"
          },
          {
            "reference": "urn:uuid:09b93bc4-5c60-40f7-9b0c-efe9c4b24c3d"
          },
          {
            "reference": "urn:uuid:adaca5e5-fef4-4b32-a248-a515ffb7ef7f"
          },
          {
            "reference": "urn:uuid:f5a4ed0e-b260-4e6c-805f-85db59d5b488"
          }
        ],
        "text": {
          "status": "generated",
          "div": "<div xmlns=\"http://www.w3.org/1999/xhtml\"><table class=\"hl7__ips first25\"><tr><th>Active Planned Care / Goals</th><th>Start Date</th><th>Reason</th></tr><tr><td>Diabetes self management plan</td><td><span class=\"nb\">13-Jan-1981</span></td><td>Prediabetes</td></tr><tr><td><ul><li>Maintain hemoglobin A1c (HbA1c) below 6.5% to reduce risk of progression to diabetes.</li><li>Achieve and maintain a healthy body weight to support glycemic control.</li><li>Engage in at least 150 minutes of moderate-intensity physical activity per week as tolerated.</li><li>Adopt a balanced diet with reduced intake of simple sugars and saturated fats to support glycemic control.</li><li>Maintain blood pressure below 130/80 mmHg to reduce cardiovascular risk.</li></ul></td><td></td><td></td></tr></table></div>"
        },
        "status": "active",
        "intent": "plan",
        "subject": {
          "reference": "urn:uuid:22269813-b776-4294-9232-28af3001c619",
          "display": "Krisztián Balogh"
        }
      }
    },
    {
      "fullUrl": "urn:uuid:eaf478e4-e992-4a48-a8b7-e3bb97b3950a",
      "resource": {
        "resourceType": "ImmunizationRecommendation",
        "id": "eaf478e4-e992-4a48-a8b7-e3bb97b3950a",
        "recommendation": [
          {
            "vaccineCode": [
              {
                "coding": [
                  {
                    "code": "1181000221105",
                    "system": "http://snomed.info/sct",
                    "display": "Vaccine product containing only Influenza virus antigen (medicinal product)"
                  }
                ]
              }
            ],
            "dateCriterion": [
              {
                "code": {
                  "coding": [
                    {
                      "code": "30980-7",
                      "system": "http://loinc.org",
                      "display": "Date vaccine due"
                    }
                  ]
                },
                "value": "2025-10-01"
              }
            ],
            "targetDisease": {
              "coding": [
                {
                  "code": "6142004",
                  "system": "http://snomed.info/sct",
                  "display": "Influenza (disorder)"
                }
              ]
            },
            "series": "Annual seasonal influenza vaccination",
            "forecastStatus": {
              "coding": [
                {
                  "code": "due",
                  "system": "http://terminology.hl7.org/CodeSystem/immunization-recommendation-status",
                  "display": "Due"
                }
              ]
            }
          }
        ],
        "text": {
          "status": "generated",
          "div": "<div xmlns=\"http://www.w3.org/1999/xhtml\"><table class=\"hl7__ips\"><tr><td>Vaccine product containing only Influenza virus antigen (medicinal product)</td><td><span class=\"nb\">01-Oct-2025</span></td><td>Annual seasonal influenza vaccination</td></tr></table></div>"
        },
        "date": "2025-12-11",
        "patient": {
          "reference": "urn:uuid:22269813-b776-4294-9232-28af3001c619",
          "display": "Krisztián Balogh"
        }
      }
    },
    {
      "fullUrl": "urn:uuid:dc0feca7-685e-4565-acb8-d7435a33d6fe",
      "resource": {
        "resourceType": "Observation",
        "id": "dc0feca7-685e-4565-acb8-d7435a33d6fe",
        "meta": {
          "profile": [
            "http://hl7.org/fhir/StructureDefinition/vitalsigns"
          ]
        },
        "category": [
          {
            "coding": [
              {
                "system": "http://terminology.hl7.org/CodeSystem/observation-category",
                "code": "vital-signs",
                "display": "Vital Signs"
              }
            ]
          }
        ],
        "valueQuantity": {
          "value": 187.3,
          "code": "cm",
          "unit": "cm"
        },
        "text": {
          "status": "generated",
          "div": "<div xmlns=\"http://www.w3.org/1999/xhtml\"><table class=\"hl7__ips\"><tr><th>Vital Sign</th><th>Date</th><th>Measurement</th></tr><tr><td>Body Height</td><td>30-Jul-2024</td><td>187.3 cm</td></tr></table></div>"
        },
        "status": "final",
        "code": {
          "coding": [
            {
              "code": "8302-2",
              "system": "http://loinc.org",
              "display": "Body Height"
            }
          ]
        },
        "subject": {
          "reference": "urn:uuid:22269813-b776-4294-9232-28af3001c619",
          "display": "Krisztián Balogh"
        },
        "effectiveDateTime": "2024-07-30"
      }
    },
    {
      "fullUrl": "urn:uuid:3d65805c-8103-41cb-8465-9c12c5863576",
      "resource": {
        "resourceType": "Observation",
        "id": "3d65805c-8103-41cb-8465-9c12c5863576",
        "meta": {
          "profile": [
            "http://hl7.org/fhir/StructureDefinition/vitalsigns"
          ]
        },
        "category": [
          {
            "coding": [
              {
                "system": "http://terminology.hl7.org/CodeSystem/observation-category",
                "code": "vital-signs",
                "display": "Vital Signs"
              }
            ]
          }
        ],
        "valueQuantity": {
          "value": 2,
          "code": "{score}",
          "unit": "{score}"
        },
        "text": {
          "status": "generated",
          "div": "<div xmlns=\"http://www.w3.org/1999/xhtml\"><table class=\"hl7__ips\"><tr><th>Vital Sign</th><th>Date</th><th>Measurement</th></tr><tr><td>Pain severity - 0-10 verbal numeric rating [Score] - Reported</td><td>30-Jul-2024</td><td>2 {score}</td></tr></table></div>"
        },
        "status": "final",
        "code": {
          "coding": [
            {
              "code": "72514-3",
              "system": "http://loinc.org",
              "display": "Pain severity - 0-10 verbal numeric rating [Score] - Reported"
            }
          ]
        },
        "subject": {
          "reference": "urn:uuid:22269813-b776-4294-9232-28af3001c619",
          "display": "Krisztián Balogh"
        },
        "effectiveDateTime": "2024-07-30"
      }
    },
    {
      "fullUrl": "urn:uuid:3ce30745-e299-4c4a-aea1-3dcbcc06f7ad",
      "resource": {
        "resourceType": "Observation",
        "id": "3ce30745-e299-4c4a-aea1-3dcbcc06f7ad",
        "meta": {
          "profile": [
            "http://hl7.org/fhir/StructureDefinition/vitalsigns"
          ]
        },
        "category": [
          {
            "coding": [
              {
                "system": "http://terminology.hl7.org/CodeSystem/observation-category",
                "code": "vital-signs",
                "display": "Vital Signs"
              }
            ]
          }
        ],
        "valueQuantity": {
          "value": 97.6,
          "code": "kg",
          "unit": "kg"
        },
        "text": {
          "status": "generated",
          "div": "<div xmlns=\"http://www.w3.org/1999/xhtml\"><table class=\"hl7__ips\"><tr><th>Vital Sign</th><th>Date</th><th>Measurement</th></tr><tr><td>Body Weight</td><td>30-Jul-2024</td><td>97.6 kg</td></tr></table></div>"
        },
        "status": "final",
        "code": {
          "coding": [
            {
              "code": "29463-7",
              "system": "http://loinc.org",
              "display": "Body Weight"
            }
          ]
        },
        "subject": {
          "reference": "urn:uuid:22269813-b776-4294-9232-28af3001c619",
          "display": "Krisztián Balogh"
        },
        "effectiveDateTime": "2024-07-30"
      }
    },
    {
      "fullUrl": "urn:uuid:7c6ce038-0eb0-4e53-afdd-d04196d2408d",
      "resource": {
        "resourceType": "Observation",
        "id": "7c6ce038-0eb0-4e53-afdd-d04196d2408d",
        "meta": {
          "profile": [
            "http://hl7.org/fhir/StructureDefinition/vitalsigns"
          ]
        },
        "category": [
          {
            "coding": [
              {
                "system": "http://terminology.hl7.org/CodeSystem/observation-category",
                "code": "vital-signs",
                "display": "Vital Signs"
              }
            ]
          }
        ],
        "valueQuantity": {
          "value": 27.8,
          "code": "kg/m2",
          "unit": "kg/m2"
        },
        "text": {
          "status": "generated",
          "div": "<div xmlns=\"http://www.w3.org/1999/xhtml\"><table class=\"hl7__ips\"><tr><th>Vital Sign</th><th>Date</th><th>Measurement</th></tr><tr><td>Body mass index (BMI) [Ratio]</td><td>30-Jul-2024</td><td>27.8 kg/m2</td></tr></table></div>"
        },
        "status": "final",
        "code": {
          "coding": [
            {
              "code": "39156-5",
              "system": "http://loinc.org",
              "display": "Body mass index (BMI) [Ratio]"
            }
          ]
        },
        "subject": {
          "reference": "urn:uuid:22269813-b776-4294-9232-28af3001c619",
          "display": "Krisztián Balogh"
        },
        "effectiveDateTime": "2024-07-30"
      }
    },
    {
      "fullUrl": "urn:uuid:f682831c-31c3-4745-8e86-2ca024850c51",
      "resource": {
        "resourceType": "Observation",
        "id": "f682831c-31c3-4745-8e86-2ca024850c51",
        "meta": {
          "profile": [
            "http://hl7.org/fhir/StructureDefinition/vitalsigns"
          ]
        },
        "category": [
          {
            "coding": [
              {
                "system": "http://terminology.hl7.org/CodeSystem/observation-category",
                "code": "vital-signs",
                "display": "Vital Signs"
              }
            ]
          }
        ],
        "valueQuantity": {
          "value": 66,
          "code": "mm[Hg]",
          "unit": "mm[Hg]"
        },
        "text": {
          "status": "generated",
          "div": "<div xmlns=\"http://www.w3.org/1999/xhtml\"><table class=\"hl7__ips\"><tr><th>Vital Sign</th><th>Date</th><th>Measurement</th></tr><tr><td>Diastolic Blood Pressure</td><td>30-Jul-2024</td><td>66 mm[Hg]</td></tr></table></div>"
        },
        "status": "final",
        "code": {
          "coding": [
            {
              "code": "8462-4",
              "system": "http://loinc.org",
              "display": "Diastolic Blood Pressure"
            }
          ]
        },
        "subject": {
          "reference": "urn:uuid:22269813-b776-4294-9232-28af3001c619",
          "display": "Krisztián Balogh"
        },
        "effectiveDateTime": "2024-07-30"
      }
    },
    {
      "fullUrl": "urn:uuid:9e82fb14-78c3-4d1d-bf5e-1555b2cc36af",
      "resource": {
        "resourceType": "Observation",
        "id": "9e82fb14-78c3-4d1d-bf5e-1555b2cc36af",
        "meta": {
          "profile": [
            "http://hl7.org/fhir/StructureDefinition/vitalsigns"
          ]
        },
        "category": [
          {
            "coding": [
              {
                "system": "http://terminology.hl7.org/CodeSystem/observation-category",
                "code": "vital-signs",
                "display": "Vital Signs"
              }
            ]
          }
        ],
        "valueQuantity": {
          "value": 98,
          "code": "mm[Hg]",
          "unit": "mm[Hg]"
        },
        "text": {
          "status": "generated",
          "div": "<div xmlns=\"http://www.w3.org/1999/xhtml\"><table class=\"hl7__ips\"><tr><th>Vital Sign</th><th>Date</th><th>Measurement</th></tr><tr><td>Systolic Blood Pressure</td><td>30-Jul-2024</td><td>98 mm[Hg]</td></tr></table></div>"
        },
        "status": "final",
        "code": {
          "coding": [
            {
              "code": "8480-6",
              "system": "http://loinc.org",
              "display": "Systolic Blood Pressure"
            }
          ]
        },
        "subject": {
          "reference": "urn:uuid:22269813-b776-4294-9232-28af3001c619",
          "display": "Krisztián Balogh"
        },
        "effectiveDateTime": "2024-07-30"
      }
    },
    {
      "fullUrl": "urn:uuid:a6bed6bf-00d5-485b-aad2-724d10e5ab55",
      "resource": {
        "resourceType": "Observation",
        "id": "a6bed6bf-00d5-485b-aad2-724d10e5ab55",
        "meta": {
          "profile": [
            "http://hl7.org/fhir/StructureDefinition/vitalsigns"
          ]
        },
        "category": [
          {
            "coding": [
              {
                "system": "http://terminology.hl7.org/CodeSystem/observation-category",
                "code": "vital-signs",
                "display": "Vital Signs"
              }
            ]
          }
        ],
        "valueQuantity": {
          "value": 100,
          "code": "/min",
          "unit": "/min"
        },
        "text": {
          "status": "generated",
          "div": "<div xmlns=\"http://www.w3.org/1999/xhtml\"><table class=\"hl7__ips\"><tr><th>Vital Sign</th><th>Date</th><th>Measurement</th></tr><tr><td>Heart rate</td><td>30-Jul-2024</td><td>100 /min</td></tr></table></div>"
        },
        "status": "final",
        "code": {
          "coding": [
            {
              "code": "8867-4",
              "system": "http://loinc.org",
              "display": "Heart rate"
            }
          ]
        },
        "subject": {
          "reference": "urn:uuid:22269813-b776-4294-9232-28af3001c619",
          "display": "Krisztián Balogh"
        },
        "effectiveDateTime": "2024-07-30"
      }
    },
    {
      "fullUrl": "urn:uuid:3d2f4ecb-cfa0-41be-84ce-4a1322f64d26",
      "resource": {
        "resourceType": "Observation",
        "id": "3d2f4ecb-cfa0-41be-84ce-4a1322f64d26",
        "meta": {
          "profile": [
            "http://hl7.org/fhir/StructureDefinition/vitalsigns"
          ]
        },
        "category": [
          {
            "coding": [
              {
                "system": "http://terminology.hl7.org/CodeSystem/observation-category",
                "code": "vital-signs",
                "display": "Vital Signs"
              }
            ]
          }
        ],
        "valueQuantity": {
          "value": 15,
          "code": "/min",
          "unit": "/min"
        },
        "text": {
          "status": "generated",
          "div": "<div xmlns=\"http://www.w3.org/1999/xhtml\"><table class=\"hl7__ips\"><tr><th>Vital Sign</th><th>Date</th><th>Measurement</th></tr><tr><td>Respiratory rate</td><td>30-Jul-2024</td><td>15 /min</td></tr></table></div>"
        },
        "status": "final",
        "code": {
          "coding": [
            {
              "code": "9279-1",
              "system": "http://loinc.org",
              "display": "Respiratory rate"
            }
          ]
        },
        "subject": {
          "reference": "urn:uuid:22269813-b776-4294-9232-28af3001c619",
          "display": "Krisztián Balogh"
        },
        "effectiveDateTime": "2024-07-30"
      }
    },
    {
      "fullUrl": "urn:uuid:77eb7252-4733-42c4-8cf8-2fcdc211d57c",
      "resource": {
        "resourceType": "Observation",
        "id": "77eb7252-4733-42c4-8cf8-2fcdc211d57c",
        "meta": {
          "profile": [
            "http://hl7.org/fhir/StructureDefinition/vitalsigns"
          ]
        },
        "category": [
          {
            "coding": [
              {
                "system": "http://terminology.hl7.org/CodeSystem/observation-category",
                "code": "vital-signs",
                "display": "Vital Signs"
              }
            ]
          }
        ],
        "valueQuantity": {
          "value": 187.3,
          "code": "cm",
          "unit": "cm"
        },
        "text": {
          "status": "generated",
          "div": "<div xmlns=\"http://www.w3.org/1999/xhtml\"><table class=\"hl7__ips\"><tr><th>Vital Sign</th><th>Date</th><th>Measurement</th></tr><tr><td>Body Height</td><td>25-Jul-2023</td><td>187.3 cm</td></tr></table></div>"
        },
        "status": "final",
        "code": {
          "coding": [
            {
              "code": "8302-2",
              "system": "http://loinc.org",
              "display": "Body Height"
            }
          ]
        },
        "subject": {
          "reference": "urn:uuid:22269813-b776-4294-9232-28af3001c619",
          "display": "Krisztián Balogh"
        },
        "effectiveDateTime": "2023-07-25"
      }
    },
    {
      "fullUrl": "urn:uuid:e25d03e8-e22b-473f-9710-ec3f725bade6",
      "resource": {
        "resourceType": "Observation",
        "id": "e25d03e8-e22b-473f-9710-ec3f725bade6",
        "meta": {
          "profile": [
            "http://hl7.org/fhir/StructureDefinition/vitalsigns"
          ]
        },
        "category": [
          {
            "coding": [
              {
                "system": "http://terminology.hl7.org/CodeSystem/observation-category",
                "code": "vital-signs",
                "display": "Vital Signs"
              }
            ]
          }
        ],
        "valueQuantity": {
          "value": 3,
          "code": "{score}",
          "unit": "{score}"
        },
        "text": {
          "status": "generated",
          "div": "<div xmlns=\"http://www.w3.org/1999/xhtml\"><table class=\"hl7__ips\"><tr><th>Vital Sign</th><th>Date</th><th>Measurement</th></tr><tr><td>Pain severity - 0-10 verbal numeric rating [Score] - Reported</td><td>25-Jul-2023</td><td>3 {score}</td></tr></table></div>"
        },
        "status": "final",
        "code": {
          "coding": [
            {
              "code": "72514-3",
              "system": "http://loinc.org",
              "display": "Pain severity - 0-10 verbal numeric rating [Score] - Reported"
            }
          ]
        },
        "subject": {
          "reference": "urn:uuid:22269813-b776-4294-9232-28af3001c619",
          "display": "Krisztián Balogh"
        },
        "effectiveDateTime": "2023-07-25"
      }
    },
    {
      "fullUrl": "urn:uuid:e3ef6339-432f-45af-b1a9-5911c8b7a7a1",
      "resource": {
        "resourceType": "Observation",
        "id": "e3ef6339-432f-45af-b1a9-5911c8b7a7a1",
        "meta": {
          "profile": [
            "http://hl7.org/fhir/StructureDefinition/vitalsigns"
          ]
        },
        "category": [
          {
            "coding": [
              {
                "system": "http://terminology.hl7.org/CodeSystem/observation-category",
                "code": "vital-signs",
                "display": "Vital Signs"
              }
            ]
          }
        ],
        "valueQuantity": {
          "value": 97.6,
          "code": "kg",
          "unit": "kg"
        },
        "text": {
          "status": "generated",
          "div": "<div xmlns=\"http://www.w3.org/1999/xhtml\"><table class=\"hl7__ips\"><tr><th>Vital Sign</th><th>Date</th><th>Measurement</th></tr><tr><td>Body Weight</td><td>25-Jul-2023</td><td>97.6 kg</td></tr></table></div>"
        },
        "status": "final",
        "code": {
          "coding": [
            {
              "code": "29463-7",
              "system": "http://loinc.org",
              "display": "Body Weight"
            }
          ]
        },
        "subject": {
          "reference": "urn:uuid:22269813-b776-4294-9232-28af3001c619",
          "display": "Krisztián Balogh"
        },
        "effectiveDateTime": "2023-07-25"
      }
    },
    {
      "fullUrl": "urn:uuid:bec8ac9d-03ca-4185-91b4-89f6c3f85344",
      "resource": {
        "resourceType": "Observation",
        "id": "bec8ac9d-03ca-4185-91b4-89f6c3f85344",
        "meta": {
          "profile": [
            "http://hl7.org/fhir/StructureDefinition/vitalsigns"
          ]
        },
        "category": [
          {
            "coding": [
              {
                "system": "http://terminology.hl7.org/CodeSystem/observation-category",
                "code": "vital-signs",
                "display": "Vital Signs"
              }
            ]
          }
        ],
        "valueQuantity": {
          "value": 27.8,
          "code": "kg/m2",
          "unit": "kg/m2"
        },
        "text": {
          "status": "generated",
          "div": "<div xmlns=\"http://www.w3.org/1999/xhtml\"><table class=\"hl7__ips\"><tr><th>Vital Sign</th><th>Date</th><th>Measurement</th></tr><tr><td>Body mass index (BMI) [Ratio]</td><td>25-Jul-2023</td><td>27.8 kg/m2</td></tr></table></div>"
        },
        "status": "final",
        "code": {
          "coding": [
            {
              "code": "39156-5",
              "system": "http://loinc.org",
              "display": "Body mass index (BMI) [Ratio]"
            }
          ]
        },
        "subject": {
          "reference": "urn:uuid:22269813-b776-4294-9232-28af3001c619",
          "display": "Krisztián Balogh"
        },
        "effectiveDateTime": "2023-07-25"
      }
    },
    {
      "fullUrl": "urn:uuid:eb92b187-9e59-4bdc-93c2-5e69fc2a6186",
      "resource": {
        "resourceType": "Observation",
        "id": "eb92b187-9e59-4bdc-93c2-5e69fc2a6186",
        "meta": {
          "profile": [
            "http://hl7.org/fhir/StructureDefinition/vitalsigns"
          ]
        },
        "category": [
          {
            "coding": [
              {
                "system": "http://terminology.hl7.org/CodeSystem/observation-category",
                "code": "vital-signs",
                "display": "Vital Signs"
              }
            ]
          }
        ],
        "valueQuantity": {
          "value": 66,
          "code": "mm[Hg]",
          "unit": "mm[Hg]"
        },
        "text": {
          "status": "generated",
          "div": "<div xmlns=\"http://www.w3.org/1999/xhtml\"><table class=\"hl7__ips\"><tr><th>Vital Sign</th><th>Date</th><th>Measurement</th></tr><tr><td>Diastolic Blood Pressure</td><td>25-Jul-2023</td><td>66 mm[Hg]</td></tr></table></div>"
        },
        "status": "final",
        "code": {
          "coding": [
            {
              "code": "8462-4",
              "system": "http://loinc.org",
              "display": "Diastolic Blood Pressure"
            }
          ]
        },
        "subject": {
          "reference": "urn:uuid:22269813-b776-4294-9232-28af3001c619",
          "display": "Krisztián Balogh"
        },
        "effectiveDateTime": "2023-07-25"
      }
    },
    {
      "fullUrl": "urn:uuid:8da1d994-8575-4f90-9b6e-8dee5a1f7c43",
      "resource": {
        "resourceType": "Observation",
        "id": "8da1d994-8575-4f90-9b6e-8dee5a1f7c43",
        "meta": {
          "profile": [
            "http://hl7.org/fhir/StructureDefinition/vitalsigns"
          ]
        },
        "category": [
          {
            "coding": [
              {
                "system": "http://terminology.hl7.org/CodeSystem/observation-category",
                "code": "vital-signs",
                "display": "Vital Signs"
              }
            ]
          }
        ],
        "valueQuantity": {
          "value": 90,
          "code": "mm[Hg]",
          "unit": "mm[Hg]"
        },
        "text": {
          "status": "generated",
          "div": "<div xmlns=\"http://www.w3.org/1999/xhtml\"><table class=\"hl7__ips\"><tr><th>Vital Sign</th><th>Date</th><th>Measurement</th></tr><tr><td>Systolic Blood Pressure</td><td>25-Jul-2023</td><td>90 mm[Hg]</td></tr></table></div>"
        },
        "status": "final",
        "code": {
          "coding": [
            {
              "code": "8480-6",
              "system": "http://loinc.org",
              "display": "Systolic Blood Pressure"
            }
          ]
        },
        "subject": {
          "reference": "urn:uuid:22269813-b776-4294-9232-28af3001c619",
          "display": "Krisztián Balogh"
        },
        "effectiveDateTime": "2023-07-25"
      }
    },
    {
      "fullUrl": "urn:uuid:cab5b3bb-2220-4786-bb46-c51b3f460b2d",
      "resource": {
        "resourceType": "Observation",
        "id": "cab5b3bb-2220-4786-bb46-c51b3f460b2d",
        "meta": {
          "profile": [
            "http://hl7.org/fhir/StructureDefinition/vitalsigns"
          ]
        },
        "category": [
          {
            "coding": [
              {
                "system": "http://terminology.hl7.org/CodeSystem/observation-category",
                "code": "vital-signs",
                "display": "Vital Signs"
              }
            ]
          }
        ],
        "valueQuantity": {
          "value": 75,
          "code": "/min",
          "unit": "/min"
        },
        "text": {
          "status": "generated",
          "div": "<div xmlns=\"http://www.w3.org/1999/xhtml\"><table class=\"hl7__ips\"><tr><th>Vital Sign</th><th>Date</th><th>Measurement</th></tr><tr><td>Heart rate</td><td>25-Jul-2023</td><td>75 /min</td></tr></table></div>"
        },
        "status": "final",
        "code": {
          "coding": [
            {
              "code": "8867-4",
              "system": "http://loinc.org",
              "display": "Heart rate"
            }
          ]
        },
        "subject": {
          "reference": "urn:uuid:22269813-b776-4294-9232-28af3001c619",
          "display": "Krisztián Balogh"
        },
        "effectiveDateTime": "2023-07-25"
      }
    },
    {
      "fullUrl": "urn:uuid:d2227d82-29d4-468b-b4d6-d71d58c985aa",
      "resource": {
        "resourceType": "Observation",
        "id": "d2227d82-29d4-468b-b4d6-d71d58c985aa",
        "meta": {
          "profile": [
            "http://hl7.org/fhir/StructureDefinition/vitalsigns"
          ]
        },
        "category": [
          {
            "coding": [
              {
                "system": "http://terminology.hl7.org/CodeSystem/observation-category",
                "code": "vital-signs",
                "display": "Vital Signs"
              }
            ]
          }
        ],
        "valueQuantity": {
          "value": 14,
          "code": "/min",
          "unit": "/min"
        },
        "text": {
          "status": "generated",
          "div": "<div xmlns=\"http://www.w3.org/1999/xhtml\"><table class=\"hl7__ips\"><tr><th>Vital Sign</th><th>Date</th><th>Measurement</th></tr><tr><td>Respiratory rate</td><td>25-Jul-2023</td><td>14 /min</td></tr></table></div>"
        },
        "status": "final",
        "code": {
          "coding": [
            {
              "code": "9279-1",
              "system": "http://loinc.org",
              "display": "Respiratory rate"
            }
          ]
        },
        "subject": {
          "reference": "urn:uuid:22269813-b776-4294-9232-28af3001c619",
          "display": "Krisztián Balogh"
        },
        "effectiveDateTime": "2023-07-25"
      }
    },
    {
      "fullUrl": "urn:uuid:712d5f85-9170-425c-8e76-c2bb2273e607",
      "resource": {
        "resourceType": "Observation",
        "id": "712d5f85-9170-425c-8e76-c2bb2273e607",
        "meta": {
          "profile": [
            "http://hl7.eu/fhir/laboratory/StructureDefinition/Observation-resultslab-eu-lab"
          ]
        },
        "performer": [
          {
            "display": "The Central European Lab"
          }
        ],
        "category": [
          {
            "coding": [
              {
                "system": "http://terminology.hl7.org/CodeSystem/observation-category",
                "code": "laboratory"
              }
            ]
          }
        ],
        "code": {
          "coding": [
            {
              "code": "4548-4",
              "system": "http://loinc.org",
              "display": "Hemoglobin A1c/Hemoglobin.total in Blood"
            }
          ],
          "text": "Hemoglobin A1c/Hemoglobin.total in Blood"
        },
        "valueQuantity": {
          "system": "http://unitsofmeasure.org",
          "value": 6.1,
          "unit": "%",
          "code": "%"
        },
        "referenceRange": [
          {
            "low": {
              "value": 4.3,
              "code": "%",
              "system": "http://unitsofmeasure.org"
            }
          },
          {
            "high": {
              "value": 6,
              "code": "%",
              "system": "http://unitsofmeasure.org"
            }
          }
        ],
        "interpretation": [
          {
            "coding": [
              {
                "code": "H",
                "system": "http://terminology.hl7.org/CodeSystem/v3-ObservationInterpretation",
                "display": "High"
              }
            ]
          }
        ],
        "text": {
          "status": "generated",
          "div": "<div xmlns=\"http://www.w3.org/1999/xhtml\"><table class=\"hl7__eu__lab__report\"><tr><th>Test</th><th>30-Jul-2024</th><th>Reference&#xA0;Range</th><th>Unit</th></tr><tr><td>Hemoglobin A1c/Hemoglobin.total in Blood</td><td>6.1</td><td>4.3 - 6</td><td>H</td><td>%</td></tr></table></div>"
        },
        "status": "final",
        "subject": {
          "reference": "urn:uuid:22269813-b776-4294-9232-28af3001c619",
          "display": "Krisztián Balogh"
        },
        "effectiveDateTime": "2024-07-30T14:44:44Z"
      }
    },
    {
      "fullUrl": "urn:uuid:437aa758-3650-4edd-8ece-168861b76a50",
      "resource": {
        "resourceType": "Observation",
        "id": "437aa758-3650-4edd-8ece-168861b76a50",
        "meta": {
          "profile": [
            "http://hl7.eu/fhir/laboratory/StructureDefinition/Observation-resultslab-eu-lab"
          ]
        },
        "performer": [
          {
            "display": "The Central European Lab"
          }
        ],
        "category": [
          {
            "coding": [
              {
                "system": "http://terminology.hl7.org/CodeSystem/observation-category",
                "code": "laboratory"
              }
            ]
          }
        ],
        "code": {
          "coding": [
            {
              "code": "2339-0",
              "system": "http://loinc.org",
              "display": "Glucose [Mass/volume] in Blood"
            }
          ],
          "text": "Glucose [Mass/volume] in Blood"
        },
        "valueQuantity": {
          "system": "http://unitsofmeasure.org",
          "value": 69.4,
          "unit": "mg/dL",
          "code": "mg/dL"
        },
        "referenceRange": [
          {
            "low": {
              "value": 70,
              "code": "mg/dL",
              "system": "http://unitsofmeasure.org"
            }
          },
          {
            "high": {
              "value": 140,
              "code": "mg/dL",
              "system": "http://unitsofmeasure.org"
            }
          }
        ],
        "interpretation": [
          {
            "coding": [
              {
                "code": "L",
                "system": "http://terminology.hl7.org/CodeSystem/v3-ObservationInterpretation",
                "display": "Low"
              }
            ]
          }
        ],
        "text": {
          "status": "generated",
          "div": "<div xmlns=\"http://www.w3.org/1999/xhtml\"><table class=\"hl7__eu__lab__report\"><tr><th>Test</th><th>30-Jul-2024</th><th>Reference&#xA0;Range</th><th>Unit</th></tr><tr><td>Glucose [Mass/volume] in Blood</td><td>69.4</td><td>70 - 140</td><td>L</td><td>mg/dL</td></tr></table></div>"
        },
        "status": "final",
        "subject": {
          "reference": "urn:uuid:22269813-b776-4294-9232-28af3001c619",
          "display": "Krisztián Balogh"
        },
        "effectiveDateTime": "2024-07-30T14:44:44Z"
      }
    },
    {
      "fullUrl": "urn:uuid:0ca424cf-105e-49ec-9c09-78e91bba0c99",
      "resource": {
        "resourceType": "Observation",
        "id": "0ca424cf-105e-49ec-9c09-78e91bba0c99",
        "meta": {
          "profile": [
            "http://hl7.eu/fhir/laboratory/StructureDefinition/Observation-resultslab-eu-lab"
          ]
        },
        "performer": [
          {
            "display": "The Central European Lab"
          }
        ],
        "category": [
          {
            "coding": [
              {
                "system": "http://terminology.hl7.org/CodeSystem/observation-category",
                "code": "laboratory"
              }
            ]
          }
        ],
        "code": {
          "coding": [
            {
              "code": "6299-2",
              "system": "http://loinc.org",
              "display": "Urea nitrogen [Mass/volume] in Blood"
            }
          ],
          "text": "Urea nitrogen [Mass/volume] in Blood"
        },
        "valueQuantity": {
          "system": "http://unitsofmeasure.org",
          "value": 8.1,
          "unit": "mg/dL",
          "code": "mg/dL"
        },
        "referenceRange": [
          {
            "low": {
              "value": 7,
              "code": "mg/dL",
              "system": "http://unitsofmeasure.org"
            }
          },
          {
            "high": {
              "value": 20,
              "code": "mg/dL",
              "system": "http://unitsofmeasure.org"
            }
          }
        ],
        "text": {
          "status": "generated",
          "div": "<div xmlns=\"http://www.w3.org/1999/xhtml\"><table class=\"hl7__eu__lab__report\"><tr><th>Test</th><th>30-Jul-2024</th><th>Reference&#xA0;Range</th><th>Unit</th></tr><tr><td>Urea nitrogen [Mass/volume] in Blood</td><td>8.1</td><td>7 - 20</td><td></td><td>mg/dL</td></tr></table></div>"
        },
        "status": "final",
        "subject": {
          "reference": "urn:uuid:22269813-b776-4294-9232-28af3001c619",
          "display": "Krisztián Balogh"
        },
        "effectiveDateTime": "2024-07-30T14:44:44Z"
      }
    },
    {
      "fullUrl": "urn:uuid:19190789-6c92-4447-b6a1-cb0172b7af9f",
      "resource": {
        "resourceType": "Observation",
        "id": "19190789-6c92-4447-b6a1-cb0172b7af9f",
        "meta": {
          "profile": [
            "http://hl7.eu/fhir/laboratory/StructureDefinition/Observation-resultslab-eu-lab"
          ]
        },
        "performer": [
          {
            "display": "The Central European Lab"
          }
        ],
        "category": [
          {
            "coding": [
              {
                "system": "http://terminology.hl7.org/CodeSystem/observation-category",
                "code": "laboratory"
              }
            ]
          }
        ],
        "code": {
          "coding": [
            {
              "code": "38483-4",
              "system": "http://loinc.org",
              "display": "Creatinine [Mass/volume] in Blood"
            }
          ],
          "text": "Creatinine [Mass/volume] in Blood"
        },
        "valueQuantity": {
          "system": "http://unitsofmeasure.org",
          "value": 0.7,
          "unit": "mg/dL",
          "code": "mg/dL"
        },
        "referenceRange": [
          {
            "low": {
              "value": 0.9,
              "code": "mg/dL",
              "system": "http://unitsofmeasure.org"
            }
          },
          {
            "high": {
              "value": 1.3,
              "code": "mg/dL",
              "system": "http://unitsofmeasure.org"
            }
          }
        ],
        "interpretation": [
          {
            "coding": [
              {
                "code": "L",
                "system": "http://terminology.hl7.org/CodeSystem/v3-ObservationInterpretation",
                "display": "Low"
              }
            ]
          }
        ],
        "text": {
          "status": "generated",
          "div": "<div xmlns=\"http://www.w3.org/1999/xhtml\"><table class=\"hl7__eu__lab__report\"><tr><th>Test</th><th>30-Jul-2024</th><th>Reference&#xA0;Range</th><th>Unit</th></tr><tr><td>Creatinine [Mass/volume] in Blood</td><td>0.7</td><td>0.9 - 1.3</td><td>L</td><td>mg/dL</td></tr></table></div>"
        },
        "status": "final",
        "subject": {
          "reference": "urn:uuid:22269813-b776-4294-9232-28af3001c619",
          "display": "Krisztián Balogh"
        },
        "effectiveDateTime": "2024-07-30T14:44:44Z"
      }
    },
    {
      "fullUrl": "urn:uuid:7b2bdcdf-abcc-45fc-a05e-df707b1d9d3d",
      "resource": {
        "resourceType": "Observation",
        "id": "7b2bdcdf-abcc-45fc-a05e-df707b1d9d3d",
        "meta": {
          "profile": [
            "http://hl7.eu/fhir/laboratory/StructureDefinition/Observation-resultslab-eu-lab"
          ]
        },
        "performer": [
          {
            "display": "The Central European Lab"
          }
        ],
        "category": [
          {
            "coding": [
              {
                "system": "http://terminology.hl7.org/CodeSystem/observation-category",
                "code": "laboratory"
              }
            ]
          }
        ],
        "code": {
          "coding": [
            {
              "code": "49765-1",
              "system": "http://loinc.org",
              "display": "Calcium [Mass/volume] in Blood"
            }
          ],
          "text": "Calcium [Mass/volume] in Blood"
        },
        "valueQuantity": {
          "system": "http://unitsofmeasure.org",
          "value": 9.9,
          "unit": "mg/dL",
          "code": "mg/dL"
        },
        "referenceRange": [
          {
            "low": {
              "value": 8.5,
              "code": "mg/dL",
              "system": "http://unitsofmeasure.org"
            }
          },
          {
            "high": {
              "value": 10.5,
              "code": "mg/dL",
              "system": "http://unitsofmeasure.org"
            }
          }
        ],
        "text": {
          "status": "generated",
          "div": "<div xmlns=\"http://www.w3.org/1999/xhtml\"><table class=\"hl7__eu__lab__report\"><tr><th>Test</th><th>30-Jul-2024</th><th>Reference&#xA0;Range</th><th>Unit</th></tr><tr><td>Calcium [Mass/volume] in Blood</td><td>9.9</td><td>8.5 - 10.5</td><td></td><td>mg/dL</td></tr></table></div>"
        },
        "status": "final",
        "subject": {
          "reference": "urn:uuid:22269813-b776-4294-9232-28af3001c619",
          "display": "Krisztián Balogh"
        },
        "effectiveDateTime": "2024-07-30T14:44:44Z"
      }
    },
    {
      "fullUrl": "urn:uuid:a19b2c48-70c0-4206-b1b2-50a13907f1d3",
      "resource": {
        "resourceType": "Observation",
        "id": "a19b2c48-70c0-4206-b1b2-50a13907f1d3",
        "meta": {
          "profile": [
            "http://hl7.eu/fhir/laboratory/StructureDefinition/Observation-resultslab-eu-lab"
          ]
        },
        "performer": [
          {
            "display": "The Central European Lab"
          }
        ],
        "category": [
          {
            "coding": [
              {
                "system": "http://terminology.hl7.org/CodeSystem/observation-category",
                "code": "laboratory"
              }
            ]
          }
        ],
        "code": {
          "coding": [
            {
              "code": "2947-0",
              "system": "http://loinc.org",
              "display": "Sodium [Moles/volume] in Blood"
            }
          ],
          "text": "Sodium [Moles/volume] in Blood"
        },
        "valueQuantity": {
          "system": "http://unitsofmeasure.org",
          "value": 142.3,
          "unit": "mmol/L",
          "code": "mmol/L"
        },
        "referenceRange": [
          {
            "low": {
              "value": 135,
              "code": "mmol/L",
              "system": "http://unitsofmeasure.org"
            }
          },
          {
            "high": {
              "value": 145,
              "code": "mmol/L",
              "system": "http://unitsofmeasure.org"
            }
          }
        ],
        "text": {
          "status": "generated",
          "div": "<div xmlns=\"http://www.w3.org/1999/xhtml\"><table class=\"hl7__eu__lab__report\"><tr><th>Test</th><th>30-Jul-2024</th><th>Reference&#xA0;Range</th><th>Unit</th></tr><tr><td>Sodium [Moles/volume] in Blood</td><td>142.3</td><td>135 - 145</td><td></td><td>mmol/L</td></tr></table></div>"
        },
        "status": "final",
        "subject": {
          "reference": "urn:uuid:22269813-b776-4294-9232-28af3001c619",
          "display": "Krisztián Balogh"
        },
        "effectiveDateTime": "2024-07-30T14:44:44Z"
      }
    },
    {
      "fullUrl": "urn:uuid:e6a2ae73-c5f0-4703-959b-6790fed6f016",
      "resource": {
        "resourceType": "Observation",
        "id": "e6a2ae73-c5f0-4703-959b-6790fed6f016",
        "meta": {
          "profile": [
            "http://hl7.eu/fhir/laboratory/StructureDefinition/Observation-resultslab-eu-lab"
          ]
        },
        "performer": [
          {
            "display": "The Central European Lab"
          }
        ],
        "category": [
          {
            "coding": [
              {
                "system": "http://terminology.hl7.org/CodeSystem/observation-category",
                "code": "laboratory"
              }
            ]
          }
        ],
        "code": {
          "coding": [
            {
              "code": "6298-4",
              "system": "http://loinc.org",
              "display": "Potassium [Moles/volume] in Blood"
            }
          ],
          "text": "Potassium [Moles/volume] in Blood"
        },
        "valueQuantity": {
          "system": "http://unitsofmeasure.org",
          "value": 4.6,
          "unit": "mmol/L",
          "code": "mmol/L"
        },
        "referenceRange": [
          {
            "low": {
              "value": 3.5,
              "code": "mmol/L",
              "system": "http://unitsofmeasure.org"
            }
          },
          {
            "high": {
              "value": 5.1,
              "code": "mmol/L",
              "system": "http://unitsofmeasure.org"
            }
          }
        ],
        "text": {
          "status": "generated",
          "div": "<div xmlns=\"http://www.w3.org/1999/xhtml\"><table class=\"hl7__eu__lab__report\"><tr><th>Test</th><th>30-Jul-2024</th><th>Reference&#xA0;Range</th><th>Unit</th></tr><tr><td>Potassium [Moles/volume] in Blood</td><td>4.6</td><td>3.5 - 5.1</td><td></td><td>mmol/L</td></tr></table></div>"
        },
        "status": "final",
        "subject": {
          "reference": "urn:uuid:22269813-b776-4294-9232-28af3001c619",
          "display": "Krisztián Balogh"
        },
        "effectiveDateTime": "2024-07-30T14:44:44Z"
      }
    },
    {
      "fullUrl": "urn:uuid:a1685e22-c569-470d-bc4d-456513d51bec",
      "resource": {
        "resourceType": "Observation",
        "id": "a1685e22-c569-470d-bc4d-456513d51bec",
        "meta": {
          "profile": [
            "http://hl7.eu/fhir/laboratory/StructureDefinition/Observation-resultslab-eu-lab"
          ]
        },
        "performer": [
          {
            "display": "The Central European Lab"
          }
        ],
        "category": [
          {
            "coding": [
              {
                "system": "http://terminology.hl7.org/CodeSystem/observation-category",
                "code": "laboratory"
              }
            ]
          }
        ],
        "code": {
          "coding": [
            {
              "code": "2069-3",
              "system": "http://loinc.org",
              "display": "Chloride [Moles/volume] in Blood"
            }
          ],
          "text": "Chloride [Moles/volume] in Blood"
        },
        "valueQuantity": {
          "system": "http://unitsofmeasure.org",
          "value": 103.6,
          "unit": "mmol/L",
          "code": "mmol/L"
        },
        "referenceRange": [
          {
            "low": {
              "value": 98,
              "code": "mmol/L",
              "system": "http://unitsofmeasure.org"
            }
          },
          {
            "high": {
              "value": 108,
              "code": "mmol/L",
              "system": "http://unitsofmeasure.org"
            }
          }
        ],
        "text": {
          "status": "generated",
          "div": "<div xmlns=\"http://www.w3.org/1999/xhtml\"><table class=\"hl7__eu__lab__report\"><tr><th>Test</th><th>30-Jul-2024</th><th>Reference&#xA0;Range</th><th>Unit</th></tr><tr><td>Chloride [Moles/volume] in Blood</td><td>103.6</td><td>98 - 108</td><td></td><td>mmol/L</td></tr></table></div>"
        },
        "status": "final",
        "subject": {
          "reference": "urn:uuid:22269813-b776-4294-9232-28af3001c619",
          "display": "Krisztián Balogh"
        },
        "effectiveDateTime": "2024-07-30T14:44:44Z"
      }
    },
    {
      "fullUrl": "urn:uuid:aad41ee8-6c4c-4001-8e6c-69a656dc57e5",
      "resource": {
        "resourceType": "Observation",
        "id": "aad41ee8-6c4c-4001-8e6c-69a656dc57e5",
        "meta": {
          "profile": [
            "http://hl7.eu/fhir/laboratory/StructureDefinition/Observation-resultslab-eu-lab"
          ]
        },
        "performer": [
          {
            "display": "The Central European Lab"
          }
        ],
        "category": [
          {
            "coding": [
              {
                "system": "http://terminology.hl7.org/CodeSystem/observation-category",
                "code": "laboratory"
              }
            ]
          }
        ],
        "code": {
          "coding": [
            {
              "code": "20565-8",
              "system": "http://loinc.org",
              "display": "Carbon dioxide, total [Moles/volume] in Blood"
            }
          ],
          "text": "Carbon dioxide, total [Moles/volume] in Blood"
        },
        "valueQuantity": {
          "system": "http://unitsofmeasure.org",
          "value": 22.7,
          "unit": "mmol/L",
          "code": "mmol/L"
        },
        "referenceRange": [
          {
            "low": {
              "value": 22,
              "code": "mmol/L",
              "system": "http://unitsofmeasure.org"
            }
          },
          {
            "high": {
              "value": 29,
              "code": "mmol/L",
              "system": "http://unitsofmeasure.org"
            }
          }
        ],
        "text": {
          "status": "generated",
          "div": "<div xmlns=\"http://www.w3.org/1999/xhtml\"><table class=\"hl7__eu__lab__report\"><tr><th>Test</th><th>30-Jul-2024</th><th>Reference&#xA0;Range</th><th>Unit</th></tr><tr><td>Carbon dioxide, total [Moles/volume] in Blood</td><td>22.7</td><td>22 - 29</td><td></td><td>mmol/L</td></tr></table></div>"
        },
        "status": "final",
        "subject": {
          "reference": "urn:uuid:22269813-b776-4294-9232-28af3001c619",
          "display": "Krisztián Balogh"
        },
        "effectiveDateTime": "2024-07-30T14:44:44Z"
      }
    },
    {
      "fullUrl": "urn:uuid:e55cd499-b80c-4a30-9a7f-a50f3153f808",
      "resource": {
        "resourceType": "Observation",
        "id": "e55cd499-b80c-4a30-9a7f-a50f3153f808",
        "meta": {
          "profile": [
            "http://hl7.eu/fhir/laboratory/StructureDefinition/Observation-resultslab-eu-lab"
          ]
        },
        "performer": [
          {
            "display": "The Central European Lab"
          }
        ],
        "category": [
          {
            "coding": [
              {
                "system": "http://terminology.hl7.org/CodeSystem/observation-category",
                "code": "laboratory"
              }
            ]
          }
        ],
        "code": {
          "coding": [
            {
              "code": "6690-2",
              "system": "http://loinc.org",
              "display": "Leukocytes [#/volume] in Blood by Automated count"
            }
          ],
          "text": "Leukocytes [#/volume] in Blood by Automated count"
        },
        "valueQuantity": {
          "system": "http://unitsofmeasure.org",
          "value": 8.9,
          "unit": "10*3/uL",
          "code": "10*3/uL"
        },
        "referenceRange": [
          {
            "low": {
              "value": 3.4,
              "code": "10*3/uL",
              "system": "http://unitsofmeasure.org"
            }
          },
          {
            "high": {
              "value": 10.6,
              "code": "10*3/uL",
              "system": "http://unitsofmeasure.org"
            }
          }
        ],
        "text": {
          "status": "generated",
          "div": "<div xmlns=\"http://www.w3.org/1999/xhtml\"><table class=\"hl7__eu__lab__report\"><tr><th>Test</th><th>30-Jul-2024</th><th>Reference&#xA0;Range</th><th>Unit</th></tr><tr><td>Leukocytes [#/volume] in Blood by Automated count</td><td>8.9</td><td>3.4 - 10.6</td><td></td><td>10*3/uL</td></tr></table></div>"
        },
        "status": "final",
        "subject": {
          "reference": "urn:uuid:22269813-b776-4294-9232-28af3001c619",
          "display": "Krisztián Balogh"
        },
        "effectiveDateTime": "2024-07-30T14:44:44Z"
      }
    },
    {
      "fullUrl": "urn:uuid:37277320-902a-44bf-9555-8689ead96c17",
      "resource": {
        "resourceType": "Observation",
        "id": "37277320-902a-44bf-9555-8689ead96c17",
        "meta": {
          "profile": [
            "http://hl7.eu/fhir/laboratory/StructureDefinition/Observation-resultslab-eu-lab"
          ]
        },
        "performer": [
          {
            "display": "The Central European Lab"
          }
        ],
        "category": [
          {
            "coding": [
              {
                "system": "http://terminology.hl7.org/CodeSystem/observation-category",
                "code": "laboratory"
              }
            ]
          }
        ],
        "code": {
          "coding": [
            {
              "code": "789-8",
              "system": "http://loinc.org",
              "display": "Erythrocytes [#/volume] in Blood by Automated count"
            }
          ],
          "text": "Erythrocytes [#/volume] in Blood by Automated count"
        },
        "valueQuantity": {
          "system": "http://unitsofmeasure.org",
          "value": 5.1,
          "unit": "10*6/uL",
          "code": "10*6/uL"
        },
        "referenceRange": [
          {
            "low": {
              "value": 4.2,
              "code": "10*6/uL",
              "system": "http://unitsofmeasure.org"
            }
          },
          {
            "high": {
              "value": 6.2,
              "code": "10*6/uL",
              "system": "http://unitsofmeasure.org"
            }
          }
        ],
        "text": {
          "status": "generated",
          "div": "<div xmlns=\"http://www.w3.org/1999/xhtml\"><table class=\"hl7__eu__lab__report\"><tr><th>Test</th><th>30-Jul-2024</th><th>Reference&#xA0;Range</th><th>Unit</th></tr><tr><td>Erythrocytes [#/volume] in Blood by Automated count</td><td>5.1</td><td>4.2 - 6.2</td><td></td><td>10*6/uL</td></tr></table></div>"
        },
        "status": "final",
        "subject": {
          "reference": "urn:uuid:22269813-b776-4294-9232-28af3001c619",
          "display": "Krisztián Balogh"
        },
        "effectiveDateTime": "2024-07-30T14:44:44Z"
      }
    },
    {
      "fullUrl": "urn:uuid:a3be04e2-9155-4448-bbf3-092b33134985",
      "resource": {
        "resourceType": "Observation",
        "id": "a3be04e2-9155-4448-bbf3-092b33134985",
        "meta": {
          "profile": [
            "http://hl7.eu/fhir/laboratory/StructureDefinition/Observation-resultslab-eu-lab"
          ]
        },
        "performer": [
          {
            "display": "The Central European Lab"
          }
        ],
        "category": [
          {
            "coding": [
              {
                "system": "http://terminology.hl7.org/CodeSystem/observation-category",
                "code": "laboratory"
              }
            ]
          }
        ],
        "code": {
          "coding": [
            {
              "code": "718-7",
              "system": "http://loinc.org",
              "display": "Hemoglobin [Mass/volume] in Blood"
            }
          ],
          "text": "Hemoglobin [Mass/volume] in Blood"
        },
        "valueQuantity": {
          "system": "http://unitsofmeasure.org",
          "value": 13.6,
          "unit": "g/dL",
          "code": "g/dL"
        },
        "referenceRange": [
          {
            "low": {
              "value": 13.8,
              "code": "g/dL",
              "system": "http://unitsofmeasure.org"
            }
          },
          {
            "high": {
              "value": 17.5,
              "code": "g/dL",
              "system": "http://unitsofmeasure.org"
            }
          }
        ],
        "interpretation": [
          {
            "coding": [
              {
                "code": "L",
                "system": "http://terminology.hl7.org/CodeSystem/v3-ObservationInterpretation",
                "display": "Low"
              }
            ]
          }
        ],
        "text": {
          "status": "generated",
          "div": "<div xmlns=\"http://www.w3.org/1999/xhtml\"><table class=\"hl7__eu__lab__report\"><tr><th>Test</th><th>30-Jul-2024</th><th>Reference&#xA0;Range</th><th>Unit</th></tr><tr><td>Hemoglobin [Mass/volume] in Blood</td><td>13.6</td><td>13.8 - 17.5</td><td>L</td><td>g/dL</td></tr></table></div>"
        },
        "status": "final",
        "subject": {
          "reference": "urn:uuid:22269813-b776-4294-9232-28af3001c619",
          "display": "Krisztián Balogh"
        },
        "effectiveDateTime": "2024-07-30T14:44:44Z"
      }
    },
    {
      "fullUrl": "urn:uuid:ec894a66-2c22-4977-8ced-006f3bcdcd87",
      "resource": {
        "resourceType": "Observation",
        "id": "ec894a66-2c22-4977-8ced-006f3bcdcd87",
        "meta": {
          "profile": [
            "http://hl7.eu/fhir/laboratory/StructureDefinition/Observation-resultslab-eu-lab"
          ]
        },
        "performer": [
          {
            "display": "The Central European Lab"
          }
        ],
        "category": [
          {
            "coding": [
              {
                "system": "http://terminology.hl7.org/CodeSystem/observation-category",
                "code": "laboratory"
              }
            ]
          }
        ],
        "code": {
          "coding": [
            {
              "code": "4544-3",
              "system": "http://loinc.org",
              "display": "Hematocrit [Volume Fraction] of Blood by Automated count"
            }
          ],
          "text": "Hematocrit [Volume Fraction] of Blood by Automated count"
        },
        "valueQuantity": {
          "system": "http://unitsofmeasure.org",
          "value": 39,
          "unit": "%",
          "code": "%"
        },
        "referenceRange": [
          {
            "low": {
              "value": 38,
              "code": "%",
              "system": "http://unitsofmeasure.org"
            }
          },
          {
            "high": {
              "value": 50,
              "code": "%",
              "system": "http://unitsofmeasure.org"
            }
          }
        ],
        "text": {
          "status": "generated",
          "div": "<div xmlns=\"http://www.w3.org/1999/xhtml\"><table class=\"hl7__eu__lab__report\"><tr><th>Test</th><th>30-Jul-2024</th><th>Reference&#xA0;Range</th><th>Unit</th></tr><tr><td>Hematocrit [Volume Fraction] of Blood by Automated count</td><td>39.0</td><td>38 - 50</td><td></td><td>%</td></tr></table></div>"
        },
        "status": "final",
        "subject": {
          "reference": "urn:uuid:22269813-b776-4294-9232-28af3001c619",
          "display": "Krisztián Balogh"
        },
        "effectiveDateTime": "2024-07-30T14:44:44Z"
      }
    },
    {
      "fullUrl": "urn:uuid:004ca920-dfce-4e25-b9b0-d7ebc13cf444",
      "resource": {
        "resourceType": "Observation",
        "id": "004ca920-dfce-4e25-b9b0-d7ebc13cf444",
        "meta": {
          "profile": [
            "http://hl7.eu/fhir/laboratory/StructureDefinition/Observation-resultslab-eu-lab"
          ]
        },
        "performer": [
          {
            "display": "The Central European Lab"
          }
        ],
        "category": [
          {
            "coding": [
              {
                "system": "http://terminology.hl7.org/CodeSystem/observation-category",
                "code": "laboratory"
              }
            ]
          }
        ],
        "code": {
          "coding": [
            {
              "code": "787-2",
              "system": "http://loinc.org",
              "display": "MCV [Entitic volume] by Automated count"
            }
          ],
          "text": "MCV [Entitic volume] by Automated count"
        },
        "valueQuantity": {
          "system": "http://unitsofmeasure.org",
          "value": 80.7,
          "unit": "fL",
          "code": "fL"
        },
        "referenceRange": [
          {
            "low": {
              "value": 76,
              "code": "fL",
              "system": "http://unitsofmeasure.org"
            }
          },
          {
            "high": {
              "value": 98,
              "code": "fL",
              "system": "http://unitsofmeasure.org"
            }
          }
        ],
        "text": {
          "status": "generated",
          "div": "<div xmlns=\"http://www.w3.org/1999/xhtml\"><table class=\"hl7__eu__lab__report\"><tr><th>Test</th><th>30-Jul-2024</th><th>Reference&#xA0;Range</th><th>Unit</th></tr><tr><td>MCV [Entitic volume] by Automated count</td><td>80.7</td><td>76 - 98</td><td></td><td>fL</td></tr></table></div>"
        },
        "status": "final",
        "subject": {
          "reference": "urn:uuid:22269813-b776-4294-9232-28af3001c619",
          "display": "Krisztián Balogh"
        },
        "effectiveDateTime": "2024-07-30T14:44:44Z"
      }
    },
    {
      "fullUrl": "urn:uuid:7204ef66-0cf3-4bfc-a4cd-dd89ff60f066",
      "resource": {
        "resourceType": "Observation",
        "id": "7204ef66-0cf3-4bfc-a4cd-dd89ff60f066",
        "meta": {
          "profile": [
            "http://hl7.eu/fhir/laboratory/StructureDefinition/Observation-resultslab-eu-lab"
          ]
        },
        "performer": [
          {
            "display": "The Central European Lab"
          }
        ],
        "category": [
          {
            "coding": [
              {
                "system": "http://terminology.hl7.org/CodeSystem/observation-category",
                "code": "laboratory"
              }
            ]
          }
        ],
        "code": {
          "coding": [
            {
              "code": "785-6",
              "system": "http://loinc.org",
              "display": "MCH [Entitic mass] by Automated count"
            }
          ],
          "text": "MCH [Entitic mass] by Automated count"
        },
        "valueQuantity": {
          "system": "http://unitsofmeasure.org",
          "value": 27,
          "unit": "pg",
          "code": "pg"
        },
        "referenceRange": [
          {
            "low": {
              "value": 27,
              "code": "pg",
              "system": "http://unitsofmeasure.org"
            }
          },
          {
            "high": {
              "value": 34,
              "code": "pg",
              "system": "http://unitsofmeasure.org"
            }
          }
        ],
        "text": {
          "status": "generated",
          "div": "<div xmlns=\"http://www.w3.org/1999/xhtml\"><table class=\"hl7__eu__lab__report\"><tr><th>Test</th><th>30-Jul-2024</th><th>Reference&#xA0;Range</th><th>Unit</th></tr><tr><td>MCH [Entitic mass] by Automated count</td><td>27.0</td><td>27 - 34</td><td></td><td>pg</td></tr></table></div>"
        },
        "status": "final",
        "subject": {
          "reference": "urn:uuid:22269813-b776-4294-9232-28af3001c619",
          "display": "Krisztián Balogh"
        },
        "effectiveDateTime": "2024-07-30T14:44:44Z"
      }
    },
    {
      "fullUrl": "urn:uuid:7601d282-98bc-4975-a1dc-104664df3f50",
      "resource": {
        "resourceType": "Observation",
        "id": "7601d282-98bc-4975-a1dc-104664df3f50",
        "meta": {
          "profile": [
            "http://hl7.eu/fhir/laboratory/StructureDefinition/Observation-resultslab-eu-lab"
          ]
        },
        "performer": [
          {
            "display": "The Central European Lab"
          }
        ],
        "category": [
          {
            "coding": [
              {
                "system": "http://terminology.hl7.org/CodeSystem/observation-category",
                "code": "laboratory"
              }
            ]
          }
        ],
        "code": {
          "coding": [
            {
              "code": "786-4",
              "system": "http://loinc.org",
              "display": "MCHC [Mass/volume] by Automated count"
            }
          ],
          "text": "MCHC [Mass/volume] by Automated count"
        },
        "valueQuantity": {
          "system": "http://unitsofmeasure.org",
          "value": 34.5,
          "unit": "g/dL",
          "code": "g/dL"
        },
        "referenceRange": [
          {
            "low": {
              "value": 31,
              "code": "g/dL",
              "system": "http://unitsofmeasure.org"
            }
          },
          {
            "high": {
              "value": 37,
              "code": "g/dL",
              "system": "http://unitsofmeasure.org"
            }
          }
        ],
        "text": {
          "status": "generated",
          "div": "<div xmlns=\"http://www.w3.org/1999/xhtml\"><table class=\"hl7__eu__lab__report\"><tr><th>Test</th><th>30-Jul-2024</th><th>Reference&#xA0;Range</th><th>Unit</th></tr><tr><td>MCHC [Mass/volume] by Automated count</td><td>34.5</td><td>31 - 37</td><td></td><td>g/dL</td></tr></table></div>"
        },
        "status": "final",
        "subject": {
          "reference": "urn:uuid:22269813-b776-4294-9232-28af3001c619",
          "display": "Krisztián Balogh"
        },
        "effectiveDateTime": "2024-07-30T14:44:44Z"
      }
    },
    {
      "fullUrl": "urn:uuid:a692a444-f153-45f0-80f5-81663a2a2307",
      "resource": {
        "resourceType": "Observation",
        "id": "a692a444-f153-45f0-80f5-81663a2a2307",
        "meta": {
          "profile": [
            "http://hl7.eu/fhir/laboratory/StructureDefinition/Observation-resultslab-eu-lab"
          ]
        },
        "performer": [
          {
            "display": "The Central European Lab"
          }
        ],
        "category": [
          {
            "coding": [
              {
                "system": "http://terminology.hl7.org/CodeSystem/observation-category",
                "code": "laboratory"
              }
            ]
          }
        ],
        "code": {
          "coding": [
            {
              "code": "21000-5",
              "system": "http://loinc.org",
              "display": "Erythrocyte distribution width [Entitic volume] by Automated count"
            }
          ],
          "text": "Erythrocyte distribution width [Entitic volume] by Automated count"
        },
        "valueQuantity": {
          "system": "http://unitsofmeasure.org",
          "value": 39.4,
          "unit": "fL",
          "code": "fL"
        },
        "referenceRange": [
          {
            "low": {
              "value": 36,
              "code": "fL",
              "system": "http://unitsofmeasure.org"
            }
          },
          {
            "high": {
              "value": 56,
              "code": "fL",
              "system": "http://unitsofmeasure.org"
            }
          }
        ],
        "text": {
          "status": "generated",
          "div": "<div xmlns=\"http://www.w3.org/1999/xhtml\"><table class=\"hl7__eu__lab__report\"><tr><th>Test</th><th>30-Jul-2024</th><th>Reference&#xA0;Range</th><th>Unit</th></tr><tr><td>Erythrocyte distribution width [Entitic volume] by Automated count</td><td>39.4</td><td>36 - 56</td><td></td><td>fL</td></tr></table></div>"
        },
        "status": "final",
        "subject": {
          "reference": "urn:uuid:22269813-b776-4294-9232-28af3001c619",
          "display": "Krisztián Balogh"
        },
        "effectiveDateTime": "2024-07-30T14:44:44Z"
      }
    },
    {
      "fullUrl": "urn:uuid:5a69eb57-a3e2-4700-8118-cf79a2d73733",
      "resource": {
        "resourceType": "Observation",
        "id": "5a69eb57-a3e2-4700-8118-cf79a2d73733",
        "meta": {
          "profile": [
            "http://hl7.eu/fhir/laboratory/StructureDefinition/Observation-resultslab-eu-lab"
          ]
        },
        "performer": [
          {
            "display": "The Central European Lab"
          }
        ],
        "category": [
          {
            "coding": [
              {
                "system": "http://terminology.hl7.org/CodeSystem/observation-category",
                "code": "laboratory"
              }
            ]
          }
        ],
        "code": {
          "coding": [
            {
              "code": "777-3",
              "system": "http://loinc.org",
              "display": "Platelets [#/volume] in Blood by Automated count"
            }
          ],
          "text": "Platelets [#/volume] in Blood by Automated count"
        },
        "valueQuantity": {
          "system": "http://unitsofmeasure.org",
          "value": 370.5,
          "unit": "10*3/uL",
          "code": "10*3/uL"
        },
        "referenceRange": [
          {
            "low": {
              "value": 150,
              "code": "10*3/uL",
              "system": "http://unitsofmeasure.org"
            }
          },
          {
            "high": {
              "value": 363,
              "code": "10*3/uL",
              "system": "http://unitsofmeasure.org"
            }
          }
        ],
        "interpretation": [
          {
            "coding": [
              {
                "code": "H",
                "system": "http://terminology.hl7.org/CodeSystem/v3-ObservationInterpretation",
                "display": "High"
              }
            ]
          }
        ],
        "text": {
          "status": "generated",
          "div": "<div xmlns=\"http://www.w3.org/1999/xhtml\"><table class=\"hl7__eu__lab__report\"><tr><th>Test</th><th>30-Jul-2024</th><th>Reference&#xA0;Range</th><th>Unit</th></tr><tr><td>Platelets [#/volume] in Blood by Automated count</td><td>370.5</td><td>150 - 363</td><td>H</td><td>10*3/uL</td></tr></table></div>"
        },
        "status": "final",
        "subject": {
          "reference": "urn:uuid:22269813-b776-4294-9232-28af3001c619",
          "display": "Krisztián Balogh"
        },
        "effectiveDateTime": "2024-07-30T14:44:44Z"
      }
    },
    {
      "fullUrl": "urn:uuid:f5d8233b-240e-420f-b41e-9bdef13c7852",
      "resource": {
        "resourceType": "Observation",
        "id": "f5d8233b-240e-420f-b41e-9bdef13c7852",
        "meta": {
          "profile": [
            "http://hl7.eu/fhir/laboratory/StructureDefinition/Observation-resultslab-eu-lab"
          ]
        },
        "performer": [
          {
            "display": "The Central European Lab"
          }
        ],
        "category": [
          {
            "coding": [
              {
                "system": "http://terminology.hl7.org/CodeSystem/observation-category",
                "code": "laboratory"
              }
            ]
          }
        ],
        "code": {
          "coding": [
            {
              "code": "32207-3",
              "system": "http://loinc.org",
              "display": "Platelet distribution width [Entitic volume] in Blood by Automated count"
            }
          ],
          "text": "Platelet distribution width [Entitic volume] in Blood by Automated count"
        },
        "valueQuantity": {
          "system": "http://unitsofmeasure.org",
          "value": 392.6,
          "unit": "fL",
          "code": "fL"
        },
        "referenceRange": [
          {
            "low": {
              "value": 13.4,
              "code": "fL",
              "system": "http://unitsofmeasure.org"
            }
          },
          {
            "high": {
              "value": 17.4,
              "code": "fL",
              "system": "http://unitsofmeasure.org"
            }
          }
        ],
        "interpretation": [
          {
            "coding": [
              {
                "code": "H",
                "system": "http://terminology.hl7.org/CodeSystem/v3-ObservationInterpretation",
                "display": "High"
              }
            ]
          }
        ],
        "text": {
          "status": "generated",
          "div": "<div xmlns=\"http://www.w3.org/1999/xhtml\"><table class=\"hl7__eu__lab__report\"><tr><th>Test</th><th>30-Jul-2024</th><th>Reference&#xA0;Range</th><th>Unit</th></tr><tr><td>Platelet distribution width [Entitic volume] in Blood by Automated count</td><td>392.6</td><td>13.4 - 17.4</td><td>H</td><td>fL</td></tr></table></div>"
        },
        "status": "final",
        "subject": {
          "reference": "urn:uuid:22269813-b776-4294-9232-28af3001c619",
          "display": "Krisztián Balogh"
        },
        "effectiveDateTime": "2024-07-30T14:44:44Z"
      }
    },
    {
      "fullUrl": "urn:uuid:11fb4230-8f9e-4cb1-a5b8-dba44015e770",
      "resource": {
        "resourceType": "Observation",
        "id": "11fb4230-8f9e-4cb1-a5b8-dba44015e770",
        "meta": {
          "profile": [
            "http://hl7.eu/fhir/laboratory/StructureDefinition/Observation-resultslab-eu-lab"
          ]
        },
        "performer": [
          {
            "display": "The Central European Lab"
          }
        ],
        "category": [
          {
            "coding": [
              {
                "system": "http://terminology.hl7.org/CodeSystem/observation-category",
                "code": "laboratory"
              }
            ]
          }
        ],
        "code": {
          "coding": [
            {
              "code": "32623-1",
              "system": "http://loinc.org",
              "display": "Platelet mean volume [Entitic volume] in Blood by Automated count"
            }
          ],
          "text": "Platelet mean volume [Entitic volume] in Blood by Automated count"
        },
        "valueQuantity": {
          "system": "http://unitsofmeasure.org",
          "value": 10.2,
          "unit": "fL",
          "code": "fL"
        },
        "referenceRange": [
          {
            "low": {
              "value": 7.2,
              "code": "fL",
              "system": "http://unitsofmeasure.org"
            }
          },
          {
            "high": {
              "value": 13.5,
              "code": "fL",
              "system": "http://unitsofmeasure.org"
            }
          }
        ],
        "text": {
          "status": "generated",
          "div": "<div xmlns=\"http://www.w3.org/1999/xhtml\"><table class=\"hl7__eu__lab__report\"><tr><th>Test</th><th>30-Jul-2024</th><th>Reference&#xA0;Range</th><th>Unit</th></tr><tr><td>Platelet mean volume [Entitic volume] in Blood by Automated count</td><td>10.2</td><td>7.2 - 13.5</td><td></td><td>fL</td></tr></table></div>"
        },
        "status": "final",
        "subject": {
          "reference": "urn:uuid:22269813-b776-4294-9232-28af3001c619",
          "display": "Krisztián Balogh"
        },
        "effectiveDateTime": "2024-07-30T14:44:44Z"
      }
    },
    {
      "fullUrl": "urn:uuid:9ba8ffdb-9063-4e9c-b2a3-6dfacd5bb841",
      "resource": {
        "resourceType": "DeviceUseStatement",
        "id": "9ba8ffdb-9063-4e9c-b2a3-6dfacd5bb841",
        "meta": {
          "profile": [
            "http://hl7.eu/fhir/eps/StructureDefinition/deviceUseStatement-eu-eps"
          ]
        },
        "timingPeriod": {
          "start": "1981-01-13"
        },
        "text": {
          "status": "generated",
          "div": "<div xmlns=\"http://www.w3.org/1999/xhtml\"><table class=\"hl7__ips\"><tr><td>Blood glucose meter (physical object)</td><td><span class=\"nb\">13-Jan-1981</span></td></tr></table></div>"
        },
        "status": "active",
        "device": {
          "reference": "urn:uuid:0acf2d1c-046a-49af-9f8e-a78befb3abd9",
          "display": "Blood glucose meter (physical object)"
        },
        "subject": {
          "reference": "urn:uuid:22269813-b776-4294-9232-28af3001c619",
          "display": "Krisztián Balogh"
        }
      }
    },
    {
      "fullUrl": "urn:uuid:0acf2d1c-046a-49af-9f8e-a78befb3abd9",
      "resource": {
        "resourceType": "Device",
        "id": "0acf2d1c-046a-49af-9f8e-a78befb3abd9",
        "meta": {
          "profile": [
            "http://hl7.eu/fhir/eps/StructureDefinition/device-eu-eps"
          ]
        },
        "udiCarrier": [
          {
            "id": "(01)11256284421565(11)801223(17)060107(10)725132730494(21)435120652771467203"
          }
        ],
        "status": "active",
        "patient": {
          "reference": "urn:uuid:22269813-b776-4294-9232-28af3001c619",
          "display": "Krisztián Balogh"
        },
        "type": {
          "coding": [
            {
              "code": "337414009",
              "system": "http://snomed.info/sct",
              "display": "Blood glucose meter (physical object)"
            }
          ]
        }
      }
    },
    {
      "fullUrl": "urn:uuid:eeff8107-597f-4f9b-ba33-ec3af9531b52",
      "resource": {
        "resourceType": "Device",
        "id": "eeff8107-597f-4f9b-ba33-ec3af9531b52",
        "deviceName": [
          {
            "name": "SYNDERAI Synthetic Generator",
            "type": "manufacturer-name"
          }
        ],
        "version": [
          {
            "value": "5.0"
          }
        ],
        "text": {
          "status": "generated",
          "div": "<div xmlns=\"http://www.w3.org/1999/xhtml\">SYNDERAI Synthetic Generator v5.0</div>"
        },
        "status": "active",
        "distinctIdentifier": "synderai-generator-50",
        "manufacturer": "SYNDERAI Project"
      }
    },
    {
      "fullUrl": "urn:uuid:609ae770-d3e7-4e2e-bbeb-aed0aaedbb28",
      "resource": {
        "resourceType": "Provenance",
        "id": "609ae770-d3e7-4e2e-bbeb-aed0aaedbb28",
        "target": [
          {
            "reference": "Patient/22269813-b776-4294-9232-28af3001c619"
          },
          {
            "reference": "Bundle/23383df3-3c5a-4e18-a8c4-8800d3feacf1"
          },
          {
            "reference": "Composition/1d5d7dc6-d060-4453-b112-90735b4b63a9"
          },
          {
            "reference": "PractitionerRole/4a374c03-915b-4457-b698-01c21f0fa887"
          },
          {
            "reference": "Organization/d038cf9b-b161-493b-8182-2d453a3ae359"
          },
          {
            "reference": "Practitioner/3b54f6f1-a0cd-475e-8da4-08c7bdfd0cbb"
          }
        ],
        "activity": {
          "text": "Synthetic Example Data Generation"
        },
        "policy": [
          "https://synderai.net/synderai-synthetic-data-policy"
        ],
        "agent": [
          {
            "type": {
              "text": "author"
            },
            "who": {
              "reference": "Device/eeff8107-597f-4f9b-ba33-ec3af9531b52"
            }
          }
        ],
        "reason": [
          {
            "text": "Interoperability Testing and Training (non-clinical use)"
          }
        ],
        "text": {
          "status": "generated",
          "div": "<div xmlns=\"http://www.w3.org/1999/xhtml\">Provenance for SYNDERAI Synthetic Example Data Resource</div>"
        },
        "recorded": "2024-07-30T14:44:44Z"
      }
    }
  ],
  "type": "document",
  "timestamp": "2024-07-30T14:44:44Z"
}
