{
  "resourceType": "Bundle",
  "id": "eaed82c0-2bf1-4632-87e9-b7c535c33ef2",
  "meta": {
    "profile": [
      "http://hl7.eu/fhir/eps/StructureDefinition/bundle-eu-eps"
    ]
  },
  "identifier": {
    "assigner": {
      "display": "HL7 Europe"
    },
    "system": "urn:oid:2.16.840.1.113883.2.51.999",
    "value": "3921cb8b-705a-4dcc-997e-2bf053f618eb"
  },
  "entry": [
    {
      "fullUrl": "urn:uuid:b7887265-848c-4b76-8a52-a53977bb0bf4",
      "resource": {
        "resourceType": "Composition",
        "id": "b7887265-848c-4b76-8a52-a53977bb0bf4",
        "meta": {
          "security": [
            {
              "system": "http://terminology.hl7.org/CodeSystem/v3-ActReason",
              "code": "HTEST"
            },
            {
              "system": "http://terminology.hl7.org/CodeSystem/v3-ActReason",
              "code": "TRAIN"
            }
          ],
          "tag": [
            {
              "system": "https://synderai.net/fhir/CodeSystem/tags",
              "code": "synthetic",
              "display": "SYNDERAI Synthetic data"
            }
          ],
          "profile": [
            "http://hl7.eu/fhir/eps/StructureDefinition/composition-eu-eps"
          ]
        },
        "identifier": {
          "assigner": {
            "display": "HL7 Europe"
          },
          "system": "urn:oid:2.16.840.1.113883.2.51.999",
          "value": "ecfb1483-3663-42f2-8550-cc8897d570e6"
        },
        "type": {
          "coding": [
            {
              "code": "60591-5",
              "system": "http://loinc.org",
              "display": "Patient summary Document"
            }
          ],
          "text": "Patient summary Document"
        },
        "author": [
          {
            "reference": "urn:uuid:d4b8a726-4687-4b90-a018-e038ac748f46"
          }
        ],
        "section": [
          {
            "text": {
              "status": "generated",
              "div": "<div xmlns=\"http://www.w3.org/1999/xhtml\"><table class=\"hl7__ips\"><tr><th>Condition</th><th>Onset Date</th><th>Status</th></tr><tr><td>Anemia</td><td><span class=\"nb\">14-Dec-2023</span></td><td>active</td></tr><tr><td>Chronic sinusitis</td><td><span class=\"nb\">02-Oct-2022</span></td><td>active</td></tr><tr><td>Prediabetes</td><td><span class=\"nb\">28-Dec-2017</span></td><td>active</td></tr></table></div>"
            },
            "entry": [
              {
                "reference": "urn:uuid:9ccd4657-a040-4a71-93e1-c2bbda877044"
              }
            ],
            "code": {
              "coding": [
                {
                  "system": "http://loinc.org",
                  "code": "11450-4",
                  "display": "Problem list - Reported"
                }
              ]
            },
            "title": "Problem list"
          },
          {
            "text": {
              "status": "generated",
              "div": "<div xmlns=\"http://www.w3.org/1999/xhtml\"><table class=\"hl7__ips\"><tr><td>No known medications</td></tr></table></div>"
            },
            "entry": [
              {
                "reference": "urn:uuid:622554ef-8fe4-4544-892e-2f8fa278f9b9"
              }
            ],
            "code": {
              "coding": [
                {
                  "system": "http://loinc.org",
                  "code": "10160-0",
                  "display": "History of Medication use Narrative"
                }
              ]
            },
            "title": "Medication list"
          },
          {
            "text": {
              "status": "generated",
              "div": "<div xmlns=\"http://www.w3.org/1999/xhtml\"><table class=\"hl7__ips\"><tr><th>Vaccine</th><th>Date</th></tr><tr><td>Clostridium tetani toxoid antigen adsorbed only vaccine product</td><td><span class=\"nb\">19-Dec-2024</span></td></tr><tr><td>Influenza virus antigen only vaccine product</td><td><span class=\"nb\">19-Dec-2024</span></td></tr><tr><td>Live attenuated Human alphaherpesvirus 3 only vaccine product</td><td><span class=\"nb\">05-Sep-2024</span></td></tr><tr><td>SARS-CoV-2 mRNA vaccine</td><td><span class=\"nb\">20-May-2021</span></td></tr><tr><td>Hepatitis A virus antigen only vaccine product</td><td><span class=\"nb\">24-Dec-2015</span></td></tr></table></div>"
            },
            "entry": [
              {
                "reference": "urn:uuid:3d4a57c6-6c8d-413a-beb5-7ac9851fbfa5"
              }
            ],
            "code": {
              "coding": [
                {
                  "system": "http://loinc.org",
                  "code": "11369-6",
                  "display": "History of Immunization note"
                }
              ]
            },
            "title": "Immunizations list"
          },
          {
            "text": {
              "status": "generated",
              "div": "<div xmlns=\"http://www.w3.org/1999/xhtml\"><table class=\"hl7__ips\"><tr><th>Procedure</th><th>Date</th><th>Reason</th></tr><tr><td>Medication reconciliation</td><td><span class=\"nb\">05-Sep-2024</span></td><td>-</td></tr><tr><td>Assessment of health and social care needs</td><td><span class=\"nb\">05-Sep-2024</span></td><td>-</td></tr><tr><td>Assessment of anxiety</td><td><span class=\"nb\">05-Sep-2024</span></td><td>-</td></tr><tr><td>Screening for drug abuse</td><td><span class=\"nb\">05-Sep-2024</span></td><td>-</td></tr><tr><td>Screening for domestic abuse</td><td><span class=\"nb\">05-Sep-2024</span></td><td>-</td></tr><tr><td>Assessment of substance use</td><td><span class=\"nb\">05-Sep-2024</span></td><td>-</td></tr></table></div>"
            },
            "entry": [
              {
                "reference": "urn:uuid:f4f6d23e-f84b-4800-a1ad-669817ca3b82"
              }
            ],
            "code": {
              "coding": [
                {
                  "system": "http://loinc.org",
                  "code": "47519-4",
                  "display": "History of Procedures Document"
                }
              ]
            },
            "title": "Procedure History list"
          },
          {
            "text": {
              "status": "generated",
              "div": "<div xmlns=\"http://www.w3.org/1999/xhtml\"><table class=\"hl7__ips\"><tr><th>Allergy/Intolerance</th><th>Onset Date</th><th>Status</th><th>Type</th><th>Reaction</th></tr><tr><td></td><td>?</td><td>active</td><td>?</td><td></td></tr></table></div>"
            },
            "entry": [
              {
                "reference": "urn:uuid:d27a5d11-539b-46d7-9c35-9babb8898a4e"
              }
            ],
            "code": {
              "coding": [
                {
                  "system": "http://loinc.org",
                  "code": "48765-2",
                  "display": "Allergies and adverse reactions Document"
                }
              ]
            },
            "title": "Allergies and Intolerances"
          },
          {
            "text": {
              "status": "generated",
              "div": "<div xmlns=\"http://www.w3.org/1999/xhtml\"><table class=\"hl7__ips\"><tr><th>Active Planned Care / Goals</th><th>Start Date</th><th>Reason</th></tr><tr><td>Diabetes self management plan</td><td><span class=\"nb\">28-Dec-2017</span></td><td>Prediabetes</td></tr><tr><td><ul><li>Patient will implement lifestyle modifications including healthy diet, regular physical activity, and weight management to reduce risk of progression to diabetes.</li><li>Patient will achieve and maintain a weight loss of at least 5% of baseline body weight.</li><li>Patient will engage in at least 150 minutes of moderate-intensity physical activity per week.</li></ul></td><td></td><td></td></tr></table></div>"
            },
            "title": "Care Plan",
            "code": {
              "coding": [
                {
                  "code": "18776-5",
                  "system": "http://loinc.org",
                  "display": "Plan of care note"
                }
              ]
            }
          },
          {
            "text": {
              "status": "generated",
              "div": "<div xmlns=\"http://www.w3.org/1999/xhtml\"><table class=\"hl7__ips\"><tr><th>Vital Signs</th><th>2024-12-19</th><th>2024-09-05</th></tr><tr><td>Body Height</td><td>181.4 cm</td><td>181.4 cm</td></tr><tr><td>Pain severity - 0-10 verbal numeric rating [Score] - Reported</td><td>2 {score}</td><td>3 {score}</td></tr><tr><td>Body Weight</td><td>97.6 kg</td><td>97 kg</td></tr><tr><td>Body mass index (BMI) [Ratio]</td><td>29.7 kg/m2</td><td>29.5 kg/m2</td></tr><tr><td>Diastolic Blood Pressure</td><td>83 mm[Hg]</td><td>80 mm[Hg]</td></tr><tr><td>Systolic Blood Pressure</td><td>136 mm[Hg]</td><td>131 mm[Hg]</td></tr><tr><td>Heart rate</td><td>90 /min</td><td>87 /min</td></tr><tr><td>Respiratory rate</td><td>15 /min</td><td>14 /min</td></tr></table></div>"
            },
            "entry": [
              {
                "reference": "urn:uuid:52481a06-33ef-4df4-9302-db0ad0c1b8be"
              }
            ],
            "code": {
              "coding": [
                {
                  "system": "http://loinc.org",
                  "code": "8716-3",
                  "display": "Vital signs note"
                }
              ]
            },
            "title": "Vital Signs"
          },
          {
            "text": {
              "status": "generated",
              "div": "<div xmlns=\"http://www.w3.org/1999/xhtml\"><table class=\"hl7__ips\"><table class=\"hl7__ips\"><thead><tr><th>Recent Lab Observations</th><th>19-DEC-2024</th><th>Reference&#xA0;Range</th><th>Unit</th></tr></thead><tbody><tr><td>Hemoglobin A1c/Hemoglobin.total in Blood</td><td><strong>6.2 H</strong></td><td>4 - 6</td><td>%</td></tr><tr><td>Glucose [Mass/volume] in Blood</td><td>79.2</td><td>70 - 99</td><td>mg/dL</td></tr><tr><td>Urea nitrogen [Mass/volume] in Blood</td><td>18.3</td><td>7 - 43</td><td>mg/dL</td></tr><tr><td>Creatinine [Mass/volume] in Blood</td><td>1.3</td><td>0.9 - 1.3</td><td>mg/dL</td></tr><tr><td>Calcium [Mass/volume] in Blood</td><td>9.8</td><td>8.5 - 10.5</td><td>mg/dL</td></tr><tr><td>Sodium [Moles/volume] in Blood</td><td>141.3</td><td>135 - 145</td><td>mmol/L</td></tr><tr><td>Potassium [Moles/volume] in Blood</td><td>4.2</td><td>3.5 - 5.3</td><td>mmol/L</td></tr><tr><td>Chloride [Moles/volume] in Blood</td><td>106.1</td><td>98 - 108</td><td>mmol/L</td></tr><tr><td>Carbon dioxide, total [Moles/volume] in Blood</td><td>22.8</td><td>22 - 29</td><td>mmol/L</td></tr></tbody></table></table></div>"
            },
            "title": "Relevant diagnostic tests/laboratory data",
            "code": {
              "coding": [
                {
                  "code": "30954-2",
                  "system": "http://loinc.org",
                  "display": "Relevant diagnostic tests/laboratory data note"
                }
              ]
            }
          },
          {
            "text": {
              "status": "generated",
              "div": "<div xmlns=\"http://www.w3.org/1999/xhtml\"><table class=\"hl7__ips\"><tr><th>Device</th><th>Date (since)</th></tr><tr><td>Home nebulizer (physical object)</td><td><span class=\"nb\">01-Oct-2022</span></td></tr><tr><td>Blood glucose meter (physical object)</td><td><span class=\"nb\">28-Dec-2017</span></td></tr></table></div>"
            },
            "entry": [
              {
                "reference": "urn:uuid:b32fdad3-1d23-406b-afab-bbe22fa1c158"
              }
            ],
            "code": {
              "coding": [
                {
                  "system": "http://loinc.org",
                  "code": "46264-8",
                  "display": "History of medical device use"
                }
              ]
            },
            "title": "Device Use"
          }
        ],
        "title": "European Patient Summary",
        "status": "final",
        "subject": {
          "reference": "urn:uuid:c0590b2c-187c-4c2c-9a82-f4d8a94b9a5f",
          "display": "Leon Dworniczak"
        },
        "custodian": {
          "reference": "urn:uuid:091c17fe-7ef1-4435-8e95-0e8a800a012e"
        },
        "date": "2024-12-19",
        "confidentiality": "N"
      }
    },
    {
      "fullUrl": "urn:uuid:c0590b2c-187c-4c2c-9a82-f4d8a94b9a5f",
      "resource": {
        "resourceType": "Patient",
        "id": "c0590b2c-187c-4c2c-9a82-f4d8a94b9a5f",
        "meta": {
          "security": [
            {
              "system": "http://terminology.hl7.org/CodeSystem/v3-ActReason",
              "code": "HTEST"
            },
            {
              "system": "http://terminology.hl7.org/CodeSystem/v3-ActReason",
              "code": "TRAIN"
            }
          ],
          "tag": [
            {
              "system": "https://synderai.net/fhir/CodeSystem/tags",
              "code": "synthetic",
              "display": "SYNDERAI Synthetic data"
            }
          ],
          "profile": [
            "http://hl7.eu/fhir/eps/StructureDefinition/patient-eu-eps"
          ]
        },
        "identifier": [
          {
            "type": {
              "coding": [
                {
                  "code": "PT",
                  "system": "http://terminology.hl7.org/CodeSystem/v2-0203"
                }
              ]
            },
            "system": "http://ec.europa.eu/identifier/eci",
            "value": "8019-082775-0"
          },
          {
            "type": {
              "coding": [
                {
                  "code": "MR",
                  "system": "http://terminology.hl7.org/CodeSystem/v2-0203"
                }
              ]
            },
            "system": "http://local.setting.eu/identifier",
            "value": "d92da2ed-d052-f9e5-cb29-6e17d6e5c631"
          }
        ],
        "name": [
          {
            "given": [
              "Leon"
            ],
            "family": "Dworniczak",
            "text": "Leon Dworniczak"
          }
        ],
        "address": [
          {
            "line": [
              "aleja Kasprowicza 987"
            ],
            "use": "home",
            "type": "physical",
            "postalCode": "44-100",
            "city": "Gliwice",
            "country": "Poland"
          }
        ],
        "telecom": [
          {
            "system": "phone",
            "value": "+48 791 021 970"
          }
        ],
        "extension": [
          {
            "url": "http://hl7.org/fhir/StructureDefinition/patient-nationality",
            "valueCodeableConcept": {
              "coding": [
                {
                  "code": "PL",
                  "system": "http://hl7.org/fhir/ValueSet/country"
                }
              ]
            }
          }
        ],
        "text": {
          "status": "generated",
          "div": "<div xmlns=\"http://www.w3.org/1999/xhtml\"><table class=\"hl7__ips\"><tr><td>Leon Dworniczak</td><td>male</td><td>13-Apr-1978</td></tr></table></div>"
        },
        "gender": "male",
        "birthDate": "1978-04-13"
      }
    },
    {
      "fullUrl": "urn:uuid:d4b8a726-4687-4b90-a018-e038ac748f46",
      "resource": {
        "resourceType": "PractitionerRole",
        "id": "d4b8a726-4687-4b90-a018-e038ac748f46",
        "meta": {
          "profile": [
            "http://hl7.eu/fhir/base/StructureDefinition/practitionerRole-eu"
          ]
        },
        "text": {
          "status": "generated",
          "div": "<div xmlns=\"http://www.w3.org/1999/xhtml\"><table class=\"hl7__ips\">Provider Role Id d4b8a726-4687-4b90-a018-e038ac748f46</table></div>"
        },
        "practitioner": {
          "reference": "urn:uuid:5ba50cc4-be5a-4415-b720-03f061288fe7"
        },
        "organization": {
          "reference": "urn:uuid:091c17fe-7ef1-4435-8e95-0e8a800a012e"
        }
      }
    },
    {
      "fullUrl": "urn:uuid:091c17fe-7ef1-4435-8e95-0e8a800a012e",
      "resource": {
        "resourceType": "Organization",
        "id": "091c17fe-7ef1-4435-8e95-0e8a800a012e",
        "meta": {
          "profile": [
            "http://hl7.eu/fhir/base/StructureDefinition/organization-eu"
          ]
        },
        "identifier": [
          {
            "assigner": {
              "display": "HL7 Europe"
            },
            "system": "urn:oid:2.16.840.1.113883.2.51.999",
            "value": "38a950d6-bac3-4c48-a758-8eb826c251bd"
          }
        ],
        "address": [
          {
            "line": [
              "Zygmunta Starego 20"
            ],
            "city": "Gliwice",
            "postalCode": "44-100",
            "country": "Poland"
          }
        ],
        "text": {
          "status": "generated",
          "div": "<div xmlns=\"http://www.w3.org/1999/xhtml\"><table class=\"hl7__ips\">Szpital Miejski Nr 4 z Przychodnią</table></div>"
        },
        "name": "Szpital Miejski Nr 4 z Przychodnią"
      }
    },
    {
      "fullUrl": "urn:uuid:5ba50cc4-be5a-4415-b720-03f061288fe7",
      "resource": {
        "resourceType": "Practitioner",
        "id": "5ba50cc4-be5a-4415-b720-03f061288fe7",
        "meta": {
          "profile": [
            "http://hl7.eu/fhir/base/StructureDefinition/practitioner-eu"
          ]
        },
        "name": [
          {
            "prefix": [
              "Dr."
            ],
            "given": [
              "Hel"
            ],
            "family": "Ping"
          }
        ],
        "text": {
          "status": "generated",
          "div": "<div xmlns=\"http://www.w3.org/1999/xhtml\"><table class=\"hl7__ips\">Dr. Hel Ping</table></div>"
        }
      }
    },
    {
      "fullUrl": "urn:uuid:9ccd4657-a040-4a71-93e1-c2bbda877044",
      "resource": {
        "resourceType": "Condition",
        "id": "9ccd4657-a040-4a71-93e1-c2bbda877044",
        "meta": {
          "profile": [
            "http://hl7.org/fhir/uv/ips/StructureDefinition/Condition-uv-ips"
          ]
        },
        "category": [
          {
            "coding": [
              {
                "code": "problem-list-item",
                "system": "http://terminology.hl7.org/CodeSystem/condition-category",
                "display": "Problem List Item"
              }
            ]
          }
        ],
        "code": {
          "coding": [
            {
              "code": "271737000",
              "system": "http://snomed.info/sct",
              "display": "Anemia (disorder)"
            }
          ],
          "text": "Anemia"
        },
        "text": {
          "status": "generated",
          "div": "<div xmlns=\"http://www.w3.org/1999/xhtml\"><table class=\"hl7__ips\"><tr><td>Anemia</td><td><span class=\"nb\">14-Dec-2023</span></td><td>active</td></tr></table></div>"
        },
        "onsetDateTime": "2023-12-14",
        "subject": {
          "reference": "urn:uuid:c0590b2c-187c-4c2c-9a82-f4d8a94b9a5f",
          "display": "Leon Dworniczak"
        },
        "asserter": {
          "reference": "urn:uuid:d4b8a726-4687-4b90-a018-e038ac748f46",
          "display": "Szpital Miejski Nr 4 z Przychodnią"
        }
      }
    },
    {
      "fullUrl": "urn:uuid:8b536464-656b-4267-844e-3b84f4ba7656",
      "resource": {
        "resourceType": "Condition",
        "id": "8b536464-656b-4267-844e-3b84f4ba7656",
        "meta": {
          "profile": [
            "http://hl7.org/fhir/uv/ips/StructureDefinition/Condition-uv-ips"
          ]
        },
        "category": [
          {
            "coding": [
              {
                "code": "problem-list-item",
                "system": "http://terminology.hl7.org/CodeSystem/condition-category",
                "display": "Problem List Item"
              }
            ]
          }
        ],
        "code": {
          "coding": [
            {
              "code": "40055000",
              "system": "http://snomed.info/sct",
              "display": "Chronic sinusitis (disorder)"
            }
          ],
          "text": "Chronic sinusitis"
        },
        "text": {
          "status": "generated",
          "div": "<div xmlns=\"http://www.w3.org/1999/xhtml\"><table class=\"hl7__ips\"><tr><td>Chronic sinusitis</td><td><span class=\"nb\">02-Oct-2022</span></td><td>active</td></tr></table></div>"
        },
        "onsetDateTime": "2022-10-02",
        "subject": {
          "reference": "urn:uuid:c0590b2c-187c-4c2c-9a82-f4d8a94b9a5f",
          "display": "Leon Dworniczak"
        },
        "asserter": {
          "reference": "urn:uuid:d4b8a726-4687-4b90-a018-e038ac748f46",
          "display": "Szpital Miejski Nr 4 z Przychodnią"
        }
      }
    },
    {
      "fullUrl": "urn:uuid:584a8a85-2c07-4a31-acf4-bea8cc85ec6a",
      "resource": {
        "resourceType": "Condition",
        "id": "584a8a85-2c07-4a31-acf4-bea8cc85ec6a",
        "meta": {
          "profile": [
            "http://hl7.org/fhir/uv/ips/StructureDefinition/Condition-uv-ips"
          ]
        },
        "category": [
          {
            "coding": [
              {
                "code": "problem-list-item",
                "system": "http://terminology.hl7.org/CodeSystem/condition-category",
                "display": "Problem List Item"
              }
            ]
          }
        ],
        "code": {
          "coding": [
            {
              "code": "15777000",
              "system": "http://snomed.info/sct",
              "display": "Prediabetes (disorder)"
            }
          ],
          "text": "Prediabetes"
        },
        "text": {
          "status": "generated",
          "div": "<div xmlns=\"http://www.w3.org/1999/xhtml\"><table class=\"hl7__ips\"><tr><td>Prediabetes</td><td><span class=\"nb\">28-Dec-2017</span></td><td>active</td></tr></table></div>"
        },
        "onsetDateTime": "2017-12-28",
        "subject": {
          "reference": "urn:uuid:c0590b2c-187c-4c2c-9a82-f4d8a94b9a5f",
          "display": "Leon Dworniczak"
        },
        "asserter": {
          "reference": "urn:uuid:d4b8a726-4687-4b90-a018-e038ac748f46",
          "display": "Szpital Miejski Nr 4 z Przychodnią"
        }
      }
    },
    {
      "fullUrl": "urn:uuid:0b39a416-6de4-43ec-a8a0-b786e6285dd2",
      "resource": {
        "resourceType": "Condition",
        "id": "0b39a416-6de4-43ec-a8a0-b786e6285dd2",
        "meta": {
          "profile": [
            "http://hl7.org/fhir/uv/ips/StructureDefinition/Condition-uv-ips"
          ]
        },
        "category": [
          {
            "coding": [
              {
                "code": "problem-list-item",
                "system": "http://terminology.hl7.org/CodeSystem/condition-category",
                "display": "Problem List Item"
              }
            ]
          }
        ],
        "code": {
          "coding": [
            {
              "code": "10509002",
              "system": "http://snomed.info/sct",
              "display": "Acute bronchitis (disorder)"
            }
          ],
          "text": "Acute bronchitis"
        },
        "text": {
          "status": "generated",
          "div": "<div xmlns=\"http://www.w3.org/1999/xhtml\"><table class=\"hl7__ips\"><tr><td><span class=\"grayedout\">Acute bronchitis</span></td><td><span class=\"nb\">26-Aug-2024 - 07-Sep-2024</span></td><td><span class=\"grayedout\">inactive</span></td></tr></table></div>"
        },
        "onsetDateTime": "2024-08-26",
        "abatementDateTime": "2024-09-07",
        "subject": {
          "reference": "urn:uuid:c0590b2c-187c-4c2c-9a82-f4d8a94b9a5f",
          "display": "Leon Dworniczak"
        },
        "asserter": {
          "reference": "urn:uuid:d4b8a726-4687-4b90-a018-e038ac748f46",
          "display": "Szpital Miejski Nr 4 z Przychodnią"
        }
      }
    },
    {
      "fullUrl": "urn:uuid:bd81319c-7940-4d08-9055-fbe1d0c48bd5",
      "resource": {
        "resourceType": "Condition",
        "id": "bd81319c-7940-4d08-9055-fbe1d0c48bd5",
        "meta": {
          "profile": [
            "http://hl7.org/fhir/uv/ips/StructureDefinition/Condition-uv-ips"
          ]
        },
        "category": [
          {
            "coding": [
              {
                "code": "problem-list-item",
                "system": "http://terminology.hl7.org/CodeSystem/condition-category",
                "display": "Problem List Item"
              }
            ]
          }
        ],
        "code": {
          "coding": [
            {
              "code": "75498004",
              "system": "http://snomed.info/sct",
              "display": "Acute bacterial sinusitis (disorder)"
            }
          ],
          "text": "Acute bacterial sinusitis"
        },
        "text": {
          "status": "generated",
          "div": "<div xmlns=\"http://www.w3.org/1999/xhtml\"><table class=\"hl7__ips\"><tr><td><span class=\"grayedout\">Acute bacterial sinusitis</span></td><td><span class=\"nb\">26-Jul-2022 - 07-Jan-2023</span></td><td><span class=\"grayedout\">inactive</span></td></tr></table></div>"
        },
        "onsetDateTime": "2022-07-26",
        "abatementDateTime": "2023-01-07",
        "subject": {
          "reference": "urn:uuid:c0590b2c-187c-4c2c-9a82-f4d8a94b9a5f",
          "display": "Leon Dworniczak"
        },
        "asserter": {
          "reference": "urn:uuid:d4b8a726-4687-4b90-a018-e038ac748f46",
          "display": "Szpital Miejski Nr 4 z Przychodnią"
        }
      }
    },
    {
      "fullUrl": "urn:uuid:d151cbc1-ee38-43c7-b2f2-0f9fcc43dbee",
      "resource": {
        "resourceType": "Condition",
        "id": "d151cbc1-ee38-43c7-b2f2-0f9fcc43dbee",
        "meta": {
          "profile": [
            "http://hl7.org/fhir/uv/ips/StructureDefinition/Condition-uv-ips"
          ]
        },
        "category": [
          {
            "coding": [
              {
                "code": "problem-list-item",
                "system": "http://terminology.hl7.org/CodeSystem/condition-category",
                "display": "Problem List Item"
              }
            ]
          }
        ],
        "code": {
          "coding": [
            {
              "code": "444814009",
              "system": "http://snomed.info/sct",
              "display": "Viral sinusitis (disorder)"
            }
          ],
          "text": "Viral sinusitis"
        },
        "text": {
          "status": "generated",
          "div": "<div xmlns=\"http://www.w3.org/1999/xhtml\"><table class=\"hl7__ips\"><tr><td><span class=\"grayedout\">Viral sinusitis</span></td><td><span class=\"nb\">08-Feb-2016 - 21-Feb-2016</span></td><td><span class=\"grayedout\">inactive</span></td></tr></table></div>"
        },
        "onsetDateTime": "2016-02-08",
        "abatementDateTime": "2016-02-21",
        "subject": {
          "reference": "urn:uuid:c0590b2c-187c-4c2c-9a82-f4d8a94b9a5f",
          "display": "Leon Dworniczak"
        },
        "asserter": {
          "reference": "urn:uuid:d4b8a726-4687-4b90-a018-e038ac748f46",
          "display": "Szpital Miejski Nr 4 z Przychodnią"
        }
      }
    },
    {
      "fullUrl": "urn:uuid:622554ef-8fe4-4544-892e-2f8fa278f9b9",
      "resource": {
        "resourceType": "MedicationStatement",
        "id": "622554ef-8fe4-4544-892e-2f8fa278f9b9",
        "meta": {
          "profile": [
            "http://hl7.eu/fhir/eps/StructureDefinition/MedicationStatement-eu-eps"
          ]
        },
        "effectivePeriod": {
          "extension": [
            {
              "url": "http://hl7.org/fhir/StructureDefinition/data-absent-reason",
              "valueCode": "unknown"
            }
          ]
        },
        "status": "active",
        "medicationCodeableConcept": {
          "coding": [
            {
              "code": "787481004",
              "system": "http://snomed.info/sct",
              "display": "No known medications (situation)"
            }
          ]
        },
        "subject": {
          "reference": "urn:uuid:c0590b2c-187c-4c2c-9a82-f4d8a94b9a5f",
          "display": "Leon Dworniczak"
        }
      }
    },
    {
      "fullUrl": "urn:uuid:3d4a57c6-6c8d-413a-beb5-7ac9851fbfa5",
      "resource": {
        "resourceType": "Immunization",
        "id": "3d4a57c6-6c8d-413a-beb5-7ac9851fbfa5",
        "meta": {
          "profile": [
            "http://hl7.org/fhir/uv/ips/StructureDefinition/Immunization-uv-ips"
          ]
        },
        "vaccineCode": {
          "coding": [
            {
              "code": "777725002",
              "system": "http://snomed.info/sct",
              "display": "Vaccine product containing only Clostridium tetani toxoid antigen adsorbed"
            },
            {
              "code": "J07AM51",
              "system": "http://www.whocc.no/atc",
              "display": "Diphtheria-tetanus vaccines, adult type"
            }
          ],
          "text": "Clostridium tetani toxoid antigen adsorbed only vaccine product"
        },
        "site": {
          "coding": [
            {
              "code": "244979005",
              "system": "http://snomed.info/sct",
              "display": "Entire muscle of upper arm"
            }
          ],
          "text": "Entire muscle of upper arm"
        },
        "route": {
          "coding": [
            {
              "code": "78421000",
              "system": "http://snomed.info/sct",
              "display": "Intramuscular route"
            }
          ],
          "text": "Intramuscular route"
        },
        "text": {
          "status": "generated",
          "div": "<div xmlns=\"http://www.w3.org/1999/xhtml\"><table class=\"hl7__ips\"><tr><td>Clostridium tetani toxoid antigen adsorbed only vaccine product</td><td><span class=\"nb\">19-Dec-2024</span></td></tr></table></div>"
        },
        "status": "completed",
        "patient": {
          "reference": "urn:uuid:c0590b2c-187c-4c2c-9a82-f4d8a94b9a5f",
          "display": "Leon Dworniczak"
        },
        "occurrenceDateTime": "2024-12-19",
        "lotNumber": "OI-Q1LBSzcw",
        "expirationDate": "2025-04-21"
      }
    },
    {
      "fullUrl": "urn:uuid:39902cb2-d8c5-41b6-8663-0d8c7b94b71b",
      "resource": {
        "resourceType": "Immunization",
        "id": "39902cb2-d8c5-41b6-8663-0d8c7b94b71b",
        "meta": {
          "profile": [
            "http://hl7.org/fhir/uv/ips/StructureDefinition/Immunization-uv-ips"
          ]
        },
        "vaccineCode": {
          "coding": [
            {
              "code": "1181000221105",
              "system": "http://snomed.info/sct",
              "display": "Vaccine product containing Influenza virus antigen"
            },
            {
              "code": "J07BB02",
              "system": "http://www.whocc.no/atc",
              "display": "Influenza, inactivated, split virus"
            }
          ],
          "text": "Influenza virus antigen only vaccine product"
        },
        "site": {
          "coding": [
            {
              "code": "244979005",
              "system": "http://snomed.info/sct",
              "display": "Entire muscle of upper arm"
            }
          ],
          "text": "Entire muscle of upper arm"
        },
        "route": {
          "coding": [
            {
              "code": "78421000",
              "system": "http://snomed.info/sct",
              "display": "Intramuscular route"
            }
          ],
          "text": "Intramuscular route"
        },
        "text": {
          "status": "generated",
          "div": "<div xmlns=\"http://www.w3.org/1999/xhtml\"><table class=\"hl7__ips\"><tr><td>Influenza virus antigen only vaccine product</td><td><span class=\"nb\">19-Dec-2024</span></td></tr></table></div>"
        },
        "status": "completed",
        "patient": {
          "reference": "urn:uuid:c0590b2c-187c-4c2c-9a82-f4d8a94b9a5f",
          "display": "Leon Dworniczak"
        },
        "occurrenceDateTime": "2024-12-19",
        "lotNumber": "VC-r4GBpwt",
        "expirationDate": "2025-10-15"
      }
    },
    {
      "fullUrl": "urn:uuid:65b032cb-8315-4826-aba1-5960231d7e81",
      "resource": {
        "resourceType": "Immunization",
        "id": "65b032cb-8315-4826-aba1-5960231d7e81",
        "meta": {
          "profile": [
            "http://hl7.org/fhir/uv/ips/StructureDefinition/Immunization-uv-ips"
          ]
        },
        "vaccineCode": {
          "coding": [
            {
              "code": "2221000221107",
              "system": "http://snomed.info/sct",
              "display": "Live attenuated Varicella-zoster vaccine"
            },
            {
              "code": "J07BK02",
              "system": "http://www.whocc.no/atc",
              "display": "Varicella-zoster vaccines"
            }
          ],
          "text": "Live attenuated Human alphaherpesvirus 3 only vaccine product"
        },
        "site": {
          "coding": [
            {
              "code": "368208006",
              "system": "http://snomed.info/sct",
              "display": "Left upper arm structure"
            }
          ],
          "text": "Left upper arm structure"
        },
        "route": {
          "coding": [
            {
              "code": "34206005",
              "system": "http://snomed.info/sct",
              "display": "Subcutaneous route"
            }
          ],
          "text": "Subcutaneous route"
        },
        "text": {
          "status": "generated",
          "div": "<div xmlns=\"http://www.w3.org/1999/xhtml\"><table class=\"hl7__ips\"><tr><td>Live attenuated Human alphaherpesvirus 3 only vaccine product</td><td><span class=\"nb\">05-Sep-2024</span></td></tr></table></div>"
        },
        "status": "completed",
        "patient": {
          "reference": "urn:uuid:c0590b2c-187c-4c2c-9a82-f4d8a94b9a5f",
          "display": "Leon Dworniczak"
        },
        "occurrenceDateTime": "2024-09-05",
        "lotNumber": "UE-DbbEYzgo",
        "expirationDate": "2025-03-01"
      }
    },
    {
      "fullUrl": "urn:uuid:ede31899-d59b-4339-a5c6-17230e44b480",
      "resource": {
        "resourceType": "Immunization",
        "id": "ede31899-d59b-4339-a5c6-17230e44b480",
        "meta": {
          "profile": [
            "http://hl7.org/fhir/uv/ips/StructureDefinition/Immunization-uv-ips"
          ]
        },
        "vaccineCode": {
          "coding": [
            {
              "code": "1119349007",
              "system": "http://snomed.info/sct",
              "display": "Vaccine product containing SARS-CoV-2 mRNA"
            },
            {
              "code": "J07BX03",
              "system": "http://www.whocc.no/atc",
              "display": "COVID-19 mRNA vaccines"
            }
          ],
          "text": "SARS-CoV-2 mRNA vaccine"
        },
        "site": {
          "coding": [
            {
              "code": "244979005",
              "system": "http://snomed.info/sct",
              "display": "Entire muscle of upper arm"
            }
          ],
          "text": "Entire muscle of upper arm"
        },
        "route": {
          "coding": [
            {
              "code": "78421000",
              "system": "http://snomed.info/sct",
              "display": "Intramuscular route"
            }
          ],
          "text": "Intramuscular route"
        },
        "text": {
          "status": "generated",
          "div": "<div xmlns=\"http://www.w3.org/1999/xhtml\"><table class=\"hl7__ips\"><tr><td>SARS-CoV-2 mRNA vaccine</td><td><span class=\"nb\">20-May-2021</span></td></tr></table></div>"
        },
        "status": "completed",
        "patient": {
          "reference": "urn:uuid:c0590b2c-187c-4c2c-9a82-f4d8a94b9a5f",
          "display": "Leon Dworniczak"
        },
        "occurrenceDateTime": "2021-05-20",
        "lotNumber": "GS-N5Oz7",
        "expirationDate": "2021-09-19"
      }
    },
    {
      "fullUrl": "urn:uuid:c34e03ce-773c-4423-95c0-0c36bff7b4d2",
      "resource": {
        "resourceType": "Immunization",
        "id": "c34e03ce-773c-4423-95c0-0c36bff7b4d2",
        "meta": {
          "profile": [
            "http://hl7.org/fhir/uv/ips/StructureDefinition/Immunization-uv-ips"
          ]
        },
        "vaccineCode": {
          "coding": [
            {
              "code": "871751006",
              "system": "http://snomed.info/sct",
              "display": "Vaccine product containing Hepatitis A virus antigen"
            },
            {
              "code": "J07BC02",
              "system": "http://www.whocc.no/atc",
              "display": "Hepatitis A vaccines"
            }
          ],
          "text": "Hepatitis A virus antigen only vaccine product"
        },
        "site": {
          "coding": [
            {
              "code": "244979005",
              "system": "http://snomed.info/sct",
              "display": "Entire muscle of upper arm"
            }
          ],
          "text": "Entire muscle of upper arm"
        },
        "route": {
          "coding": [
            {
              "code": "78421000",
              "system": "http://snomed.info/sct",
              "display": "Intramuscular route"
            }
          ],
          "text": "Intramuscular route"
        },
        "text": {
          "status": "generated",
          "div": "<div xmlns=\"http://www.w3.org/1999/xhtml\"><table class=\"hl7__ips\"><tr><td>Hepatitis A virus antigen only vaccine product</td><td><span class=\"nb\">24-Dec-2015</span></td></tr></table></div>"
        },
        "status": "completed",
        "patient": {
          "reference": "urn:uuid:c0590b2c-187c-4c2c-9a82-f4d8a94b9a5f",
          "display": "Leon Dworniczak"
        },
        "occurrenceDateTime": "2015-12-24",
        "lotNumber": "WK-rJPEg3",
        "expirationDate": "2016-10-29"
      }
    },
    {
      "fullUrl": "urn:uuid:f4f6d23e-f84b-4800-a1ad-669817ca3b82",
      "resource": {
        "resourceType": "Procedure",
        "id": "f4f6d23e-f84b-4800-a1ad-669817ca3b82",
        "meta": {
          "profile": [
            "http://hl7.org/fhir/uv/ips/StructureDefinition/Procedure-uv-ips"
          ]
        },
        "code": {
          "coding": [
            {
              "code": "430193006",
              "system": "http://snomed.info/sct",
              "display": "Medication Reconciliation (procedure)"
            }
          ],
          "text": "Medication reconciliation"
        },
        "text": {
          "status": "generated",
          "div": "<div xmlns=\"http://www.w3.org/1999/xhtml\"><table class=\"hl7__ips\"><tr><td>Medication reconciliation</td><td><span class=\"nb\">05-Sep-2024</span></td><td>-</td></tr></table></div>"
        },
        "status": "completed",
        "performedDateTime": "2024-09-05",
        "subject": {
          "reference": "urn:uuid:c0590b2c-187c-4c2c-9a82-f4d8a94b9a5f",
          "display": "Leon Dworniczak"
        }
      }
    },
    {
      "fullUrl": "urn:uuid:2f994c6d-f103-4e56-809c-354bf6761010",
      "resource": {
        "resourceType": "Procedure",
        "id": "2f994c6d-f103-4e56-809c-354bf6761010",
        "meta": {
          "profile": [
            "http://hl7.org/fhir/uv/ips/StructureDefinition/Procedure-uv-ips"
          ]
        },
        "code": {
          "coding": [
            {
              "code": "710824005",
              "system": "http://snomed.info/sct",
              "display": "Assessment of health and social care needs (procedure)"
            }
          ],
          "text": "Assessment of health and social care needs"
        },
        "text": {
          "status": "generated",
          "div": "<div xmlns=\"http://www.w3.org/1999/xhtml\"><table class=\"hl7__ips\"><tr><td>Assessment of health and social care needs</td><td><span class=\"nb\">05-Sep-2024</span></td><td>-</td></tr></table></div>"
        },
        "status": "completed",
        "performedDateTime": "2024-09-05",
        "subject": {
          "reference": "urn:uuid:c0590b2c-187c-4c2c-9a82-f4d8a94b9a5f",
          "display": "Leon Dworniczak"
        }
      }
    },
    {
      "fullUrl": "urn:uuid:06a28738-b262-48ac-ab46-8867aeed145d",
      "resource": {
        "resourceType": "Procedure",
        "id": "06a28738-b262-48ac-ab46-8867aeed145d",
        "meta": {
          "profile": [
            "http://hl7.org/fhir/uv/ips/StructureDefinition/Procedure-uv-ips"
          ]
        },
        "code": {
          "coding": [
            {
              "code": "710841007",
              "system": "http://snomed.info/sct",
              "display": "Assessment of anxiety (procedure)"
            }
          ],
          "text": "Assessment of anxiety"
        },
        "text": {
          "status": "generated",
          "div": "<div xmlns=\"http://www.w3.org/1999/xhtml\"><table class=\"hl7__ips\"><tr><td>Assessment of anxiety</td><td><span class=\"nb\">05-Sep-2024</span></td><td>-</td></tr></table></div>"
        },
        "status": "completed",
        "performedDateTime": "2024-09-05",
        "subject": {
          "reference": "urn:uuid:c0590b2c-187c-4c2c-9a82-f4d8a94b9a5f",
          "display": "Leon Dworniczak"
        }
      }
    },
    {
      "fullUrl": "urn:uuid:8cdf6a37-1f58-4743-8e4d-e1e2728f5f67",
      "resource": {
        "resourceType": "Procedure",
        "id": "8cdf6a37-1f58-4743-8e4d-e1e2728f5f67",
        "meta": {
          "profile": [
            "http://hl7.org/fhir/uv/ips/StructureDefinition/Procedure-uv-ips"
          ]
        },
        "code": {
          "coding": [
            {
              "code": "713106006",
              "system": "http://snomed.info/sct",
              "display": "Screening for drug abuse (procedure)"
            }
          ],
          "text": "Screening for drug abuse"
        },
        "text": {
          "status": "generated",
          "div": "<div xmlns=\"http://www.w3.org/1999/xhtml\"><table class=\"hl7__ips\"><tr><td>Screening for drug abuse</td><td><span class=\"nb\">05-Sep-2024</span></td><td>-</td></tr></table></div>"
        },
        "status": "completed",
        "performedDateTime": "2024-09-05",
        "subject": {
          "reference": "urn:uuid:c0590b2c-187c-4c2c-9a82-f4d8a94b9a5f",
          "display": "Leon Dworniczak"
        }
      }
    },
    {
      "fullUrl": "urn:uuid:db99c02d-36bb-41c9-8ce3-db1850de7c08",
      "resource": {
        "resourceType": "Procedure",
        "id": "db99c02d-36bb-41c9-8ce3-db1850de7c08",
        "meta": {
          "profile": [
            "http://hl7.org/fhir/uv/ips/StructureDefinition/Procedure-uv-ips"
          ]
        },
        "code": {
          "coding": [
            {
              "code": "866148006",
              "system": "http://snomed.info/sct",
              "display": "Screening for domestic abuse (procedure)"
            }
          ],
          "text": "Screening for domestic abuse"
        },
        "text": {
          "status": "generated",
          "div": "<div xmlns=\"http://www.w3.org/1999/xhtml\"><table class=\"hl7__ips\"><tr><td>Screening for domestic abuse</td><td><span class=\"nb\">05-Sep-2024</span></td><td>-</td></tr></table></div>"
        },
        "status": "completed",
        "performedDateTime": "2024-09-05",
        "subject": {
          "reference": "urn:uuid:c0590b2c-187c-4c2c-9a82-f4d8a94b9a5f",
          "display": "Leon Dworniczak"
        }
      }
    },
    {
      "fullUrl": "urn:uuid:40781e5e-faf0-4f0b-b35e-20a3f4247982",
      "resource": {
        "resourceType": "Procedure",
        "id": "40781e5e-faf0-4f0b-b35e-20a3f4247982",
        "meta": {
          "profile": [
            "http://hl7.org/fhir/uv/ips/StructureDefinition/Procedure-uv-ips"
          ]
        },
        "code": {
          "coding": [
            {
              "code": "428211000124100",
              "system": "http://snomed.info/sct",
              "display": "Assessment of substance use (procedure)"
            }
          ],
          "text": "Assessment of substance use"
        },
        "text": {
          "status": "generated",
          "div": "<div xmlns=\"http://www.w3.org/1999/xhtml\"><table class=\"hl7__ips\"><tr><td>Assessment of substance use</td><td><span class=\"nb\">05-Sep-2024</span></td><td>-</td></tr></table></div>"
        },
        "status": "completed",
        "performedDateTime": "2024-09-05",
        "subject": {
          "reference": "urn:uuid:c0590b2c-187c-4c2c-9a82-f4d8a94b9a5f",
          "display": "Leon Dworniczak"
        }
      }
    },
    {
      "fullUrl": "urn:uuid:d27a5d11-539b-46d7-9c35-9babb8898a4e",
      "resource": {
        "resourceType": "AllergyIntolerance",
        "id": "d27a5d11-539b-46d7-9c35-9babb8898a4e",
        "meta": {
          "profile": [
            "http://hl7.eu/fhir/base/StructureDefinition/allergyIntolerance-eu-core"
          ]
        },
        "code": {
          "text": ""
        },
        "clinicalStatus": {
          "coding": [
            {
              "code": "active",
              "system": "http://terminology.hl7.org/CodeSystem/allergyintolerance-clinical"
            }
          ]
        },
        "text": {
          "status": "generated",
          "div": "<div xmlns=\"http://www.w3.org/1999/xhtml\"><table class=\"hl7__ips\"><tr><th>Allergy/Intolerance</th><th>Onset Date</th><th>Status</th><th>Type</th><th>Reaction</th></tr><tr><td></td><td>?</td><td>active</td><td>?</td><td></td></tr></table></div>"
        },
        "verificationStatus": {
          "coding": [
            {
              "code": "confirmed",
              "system": "http://terminology.hl7.org/CodeSystem/allergyintolerance-verification"
            }
          ]
        },
        "patient": {
          "reference": "urn:uuid:c0590b2c-187c-4c2c-9a82-f4d8a94b9a5f",
          "display": "Leon Dworniczak"
        },
        "_onsetDateTime": {
          "extension": [
            {
              "url": "http://hl7.org/fhir/StructureDefinition/data-absent-reason",
              "valueCode": "unknown"
            }
          ]
        }
      }
    },
    {
      "fullUrl": "urn:uuid:161de45c-3a72-4f15-bd45-fe12f24740ee",
      "resource": {
        "resourceType": "CarePlan",
        "id": "161de45c-3a72-4f15-bd45-fe12f24740ee",
        "category": [
          {
            "coding": [
              {
                "code": "assess-plan",
                "system": "http://terminology.hl7.org/CodeSystem/care-plan-category",
                "display": "Assessment and Plan"
              }
            ]
          }
        ],
        "activity": [
          {
            "detail": {
              "code": {
                "coding": [
                  {
                    "code": "698360004",
                    "system": "http://snomed.info/sct",
                    "display": "Diabetes self management plan (qualifier value)"
                  }
                ]
              },
              "reasonCode": [
                {
                  "coding": [
                    {
                      "code": "15777000",
                      "system": "http://snomed.info/sct",
                      "display": "Prediabetes"
                    }
                  ]
                }
              ],
              "status": "unknown",
              "description": "Diabetes self management plan",
              "kind": "Appointment"
            }
          }
        ],
        "period": {
          "start": "2017-12-28"
        },
        "goal": [
          {
            "reference": "urn:uuid:3854d905-f085-48de-b997-83a07d60b742"
          },
          {
            "reference": "urn:uuid:1aff0a04-ff4b-4ec7-977b-6016a582f1f1"
          },
          {
            "reference": "urn:uuid:c46c45eb-08db-4631-9b2a-916108d6d461"
          }
        ],
        "text": {
          "status": "generated",
          "div": "<div xmlns=\"http://www.w3.org/1999/xhtml\"><table class=\"hl7__ips first25\"><tr><th>Active Planned Care / Goals</th><th>Start Date</th><th>Reason</th></tr><tr><td>Diabetes self management plan</td><td><span class=\"nb\">28-Dec-2017</span></td><td>Prediabetes</td></tr><tr><td><ul><li>Patient will implement lifestyle modifications including healthy diet, regular physical activity, and weight management to reduce risk of progression to diabetes.</li><li>Patient will achieve and maintain a weight loss of at least 5% of baseline body weight.</li><li>Patient will engage in at least 150 minutes of moderate-intensity physical activity per week.</li></ul></td><td></td><td></td></tr></table></div>"
        },
        "status": "active",
        "intent": "plan",
        "subject": {
          "reference": "urn:uuid:c0590b2c-187c-4c2c-9a82-f4d8a94b9a5f",
          "display": "Leon Dworniczak"
        }
      }
    },
    {
      "fullUrl": "urn:uuid:52481a06-33ef-4df4-9302-db0ad0c1b8be",
      "resource": {
        "resourceType": "Observation",
        "id": "52481a06-33ef-4df4-9302-db0ad0c1b8be",
        "meta": {
          "profile": [
            "http://hl7.org/fhir/StructureDefinition/vitalsigns"
          ]
        },
        "category": [
          {
            "coding": [
              {
                "system": "http://terminology.hl7.org/CodeSystem/observation-category",
                "code": "vital-signs",
                "display": "Vital Signs"
              }
            ]
          }
        ],
        "valueQuantity": {
          "value": 181.4,
          "code": "cm",
          "unit": "cm"
        },
        "text": {
          "status": "generated",
          "div": "<div xmlns=\"http://www.w3.org/1999/xhtml\"><table class=\"hl7__ips\"><tr><th>Vital Sign</th><th>Date</th><th>Measurement</th></tr><tr><td>Body Height</td><td>19-Dec-2024</td><td>181.4 cm</td></tr></table></div>"
        },
        "status": "final",
        "code": {
          "coding": [
            {
              "code": "8302-2",
              "system": "http://loinc.org",
              "display": "Body Height"
            }
          ]
        },
        "subject": {
          "reference": "urn:uuid:c0590b2c-187c-4c2c-9a82-f4d8a94b9a5f",
          "display": "Leon Dworniczak"
        },
        "effectiveDateTime": "2024-12-19"
      }
    },
    {
      "fullUrl": "urn:uuid:80c92422-03a4-4bdb-8865-aec6c2f09d8c",
      "resource": {
        "resourceType": "Observation",
        "id": "80c92422-03a4-4bdb-8865-aec6c2f09d8c",
        "meta": {
          "profile": [
            "http://hl7.org/fhir/StructureDefinition/vitalsigns"
          ]
        },
        "category": [
          {
            "coding": [
              {
                "system": "http://terminology.hl7.org/CodeSystem/observation-category",
                "code": "vital-signs",
                "display": "Vital Signs"
              }
            ]
          }
        ],
        "valueQuantity": {
          "value": 2,
          "code": "{score}",
          "unit": "{score}"
        },
        "text": {
          "status": "generated",
          "div": "<div xmlns=\"http://www.w3.org/1999/xhtml\"><table class=\"hl7__ips\"><tr><th>Vital Sign</th><th>Date</th><th>Measurement</th></tr><tr><td>Pain severity - 0-10 verbal numeric rating [Score] - Reported</td><td>19-Dec-2024</td><td>2 {score}</td></tr></table></div>"
        },
        "status": "final",
        "code": {
          "coding": [
            {
              "code": "72514-3",
              "system": "http://loinc.org",
              "display": "Pain severity - 0-10 verbal numeric rating [Score] - Reported"
            }
          ]
        },
        "subject": {
          "reference": "urn:uuid:c0590b2c-187c-4c2c-9a82-f4d8a94b9a5f",
          "display": "Leon Dworniczak"
        },
        "effectiveDateTime": "2024-12-19"
      }
    },
    {
      "fullUrl": "urn:uuid:2ecdbb39-ecf0-4f17-9c34-f656e99c2f7e",
      "resource": {
        "resourceType": "Observation",
        "id": "2ecdbb39-ecf0-4f17-9c34-f656e99c2f7e",
        "meta": {
          "profile": [
            "http://hl7.org/fhir/StructureDefinition/vitalsigns"
          ]
        },
        "category": [
          {
            "coding": [
              {
                "system": "http://terminology.hl7.org/CodeSystem/observation-category",
                "code": "vital-signs",
                "display": "Vital Signs"
              }
            ]
          }
        ],
        "valueQuantity": {
          "value": 97.6,
          "code": "kg",
          "unit": "kg"
        },
        "text": {
          "status": "generated",
          "div": "<div xmlns=\"http://www.w3.org/1999/xhtml\"><table class=\"hl7__ips\"><tr><th>Vital Sign</th><th>Date</th><th>Measurement</th></tr><tr><td>Body Weight</td><td>19-Dec-2024</td><td>97.6 kg</td></tr></table></div>"
        },
        "status": "final",
        "code": {
          "coding": [
            {
              "code": "29463-7",
              "system": "http://loinc.org",
              "display": "Body Weight"
            }
          ]
        },
        "subject": {
          "reference": "urn:uuid:c0590b2c-187c-4c2c-9a82-f4d8a94b9a5f",
          "display": "Leon Dworniczak"
        },
        "effectiveDateTime": "2024-12-19"
      }
    },
    {
      "fullUrl": "urn:uuid:cd550a31-616a-474c-8d51-46b57c43705d",
      "resource": {
        "resourceType": "Observation",
        "id": "cd550a31-616a-474c-8d51-46b57c43705d",
        "meta": {
          "profile": [
            "http://hl7.org/fhir/StructureDefinition/vitalsigns"
          ]
        },
        "category": [
          {
            "coding": [
              {
                "system": "http://terminology.hl7.org/CodeSystem/observation-category",
                "code": "vital-signs",
                "display": "Vital Signs"
              }
            ]
          }
        ],
        "valueQuantity": {
          "value": 29.7,
          "code": "kg/m2",
          "unit": "kg/m2"
        },
        "text": {
          "status": "generated",
          "div": "<div xmlns=\"http://www.w3.org/1999/xhtml\"><table class=\"hl7__ips\"><tr><th>Vital Sign</th><th>Date</th><th>Measurement</th></tr><tr><td>Body mass index (BMI) [Ratio]</td><td>19-Dec-2024</td><td>29.7 kg/m2</td></tr></table></div>"
        },
        "status": "final",
        "code": {
          "coding": [
            {
              "code": "39156-5",
              "system": "http://loinc.org",
              "display": "Body mass index (BMI) [Ratio]"
            }
          ]
        },
        "subject": {
          "reference": "urn:uuid:c0590b2c-187c-4c2c-9a82-f4d8a94b9a5f",
          "display": "Leon Dworniczak"
        },
        "effectiveDateTime": "2024-12-19"
      }
    },
    {
      "fullUrl": "urn:uuid:411ff4b1-0659-478f-8326-d36f706e79fa",
      "resource": {
        "resourceType": "Observation",
        "id": "411ff4b1-0659-478f-8326-d36f706e79fa",
        "meta": {
          "profile": [
            "http://hl7.org/fhir/StructureDefinition/vitalsigns"
          ]
        },
        "category": [
          {
            "coding": [
              {
                "system": "http://terminology.hl7.org/CodeSystem/observation-category",
                "code": "vital-signs",
                "display": "Vital Signs"
              }
            ]
          }
        ],
        "valueQuantity": {
          "value": 83,
          "code": "mm[Hg]",
          "unit": "mm[Hg]"
        },
        "text": {
          "status": "generated",
          "div": "<div xmlns=\"http://www.w3.org/1999/xhtml\"><table class=\"hl7__ips\"><tr><th>Vital Sign</th><th>Date</th><th>Measurement</th></tr><tr><td>Diastolic Blood Pressure</td><td>19-Dec-2024</td><td>83 mm[Hg]</td></tr></table></div>"
        },
        "status": "final",
        "code": {
          "coding": [
            {
              "code": "8462-4",
              "system": "http://loinc.org",
              "display": "Diastolic Blood Pressure"
            }
          ]
        },
        "subject": {
          "reference": "urn:uuid:c0590b2c-187c-4c2c-9a82-f4d8a94b9a5f",
          "display": "Leon Dworniczak"
        },
        "effectiveDateTime": "2024-12-19"
      }
    },
    {
      "fullUrl": "urn:uuid:5f534823-6f33-462d-bb24-f48dff201f91",
      "resource": {
        "resourceType": "Observation",
        "id": "5f534823-6f33-462d-bb24-f48dff201f91",
        "meta": {
          "profile": [
            "http://hl7.org/fhir/StructureDefinition/vitalsigns"
          ]
        },
        "category": [
          {
            "coding": [
              {
                "system": "http://terminology.hl7.org/CodeSystem/observation-category",
                "code": "vital-signs",
                "display": "Vital Signs"
              }
            ]
          }
        ],
        "valueQuantity": {
          "value": 136,
          "code": "mm[Hg]",
          "unit": "mm[Hg]"
        },
        "text": {
          "status": "generated",
          "div": "<div xmlns=\"http://www.w3.org/1999/xhtml\"><table class=\"hl7__ips\"><tr><th>Vital Sign</th><th>Date</th><th>Measurement</th></tr><tr><td>Systolic Blood Pressure</td><td>19-Dec-2024</td><td>136 mm[Hg]</td></tr></table></div>"
        },
        "status": "final",
        "code": {
          "coding": [
            {
              "code": "8480-6",
              "system": "http://loinc.org",
              "display": "Systolic Blood Pressure"
            }
          ]
        },
        "subject": {
          "reference": "urn:uuid:c0590b2c-187c-4c2c-9a82-f4d8a94b9a5f",
          "display": "Leon Dworniczak"
        },
        "effectiveDateTime": "2024-12-19"
      }
    },
    {
      "fullUrl": "urn:uuid:64523e81-c292-429d-b608-564619488cdc",
      "resource": {
        "resourceType": "Observation",
        "id": "64523e81-c292-429d-b608-564619488cdc",
        "meta": {
          "profile": [
            "http://hl7.org/fhir/StructureDefinition/vitalsigns"
          ]
        },
        "category": [
          {
            "coding": [
              {
                "system": "http://terminology.hl7.org/CodeSystem/observation-category",
                "code": "vital-signs",
                "display": "Vital Signs"
              }
            ]
          }
        ],
        "valueQuantity": {
          "value": 90,
          "code": "/min",
          "unit": "/min"
        },
        "text": {
          "status": "generated",
          "div": "<div xmlns=\"http://www.w3.org/1999/xhtml\"><table class=\"hl7__ips\"><tr><th>Vital Sign</th><th>Date</th><th>Measurement</th></tr><tr><td>Heart rate</td><td>19-Dec-2024</td><td>90 /min</td></tr></table></div>"
        },
        "status": "final",
        "code": {
          "coding": [
            {
              "code": "8867-4",
              "system": "http://loinc.org",
              "display": "Heart rate"
            }
          ]
        },
        "subject": {
          "reference": "urn:uuid:c0590b2c-187c-4c2c-9a82-f4d8a94b9a5f",
          "display": "Leon Dworniczak"
        },
        "effectiveDateTime": "2024-12-19"
      }
    },
    {
      "fullUrl": "urn:uuid:74f3e747-42d3-4c91-8562-d452fdca1fe3",
      "resource": {
        "resourceType": "Observation",
        "id": "74f3e747-42d3-4c91-8562-d452fdca1fe3",
        "meta": {
          "profile": [
            "http://hl7.org/fhir/StructureDefinition/vitalsigns"
          ]
        },
        "category": [
          {
            "coding": [
              {
                "system": "http://terminology.hl7.org/CodeSystem/observation-category",
                "code": "vital-signs",
                "display": "Vital Signs"
              }
            ]
          }
        ],
        "valueQuantity": {
          "value": 15,
          "code": "/min",
          "unit": "/min"
        },
        "text": {
          "status": "generated",
          "div": "<div xmlns=\"http://www.w3.org/1999/xhtml\"><table class=\"hl7__ips\"><tr><th>Vital Sign</th><th>Date</th><th>Measurement</th></tr><tr><td>Respiratory rate</td><td>19-Dec-2024</td><td>15 /min</td></tr></table></div>"
        },
        "status": "final",
        "code": {
          "coding": [
            {
              "code": "9279-1",
              "system": "http://loinc.org",
              "display": "Respiratory rate"
            }
          ]
        },
        "subject": {
          "reference": "urn:uuid:c0590b2c-187c-4c2c-9a82-f4d8a94b9a5f",
          "display": "Leon Dworniczak"
        },
        "effectiveDateTime": "2024-12-19"
      }
    },
    {
      "fullUrl": "urn:uuid:eec30188-e1e4-4c56-ad15-0438f4fcff15",
      "resource": {
        "resourceType": "Observation",
        "id": "eec30188-e1e4-4c56-ad15-0438f4fcff15",
        "meta": {
          "profile": [
            "http://hl7.org/fhir/StructureDefinition/vitalsigns"
          ]
        },
        "category": [
          {
            "coding": [
              {
                "system": "http://terminology.hl7.org/CodeSystem/observation-category",
                "code": "vital-signs",
                "display": "Vital Signs"
              }
            ]
          }
        ],
        "valueQuantity": {
          "value": 181.4,
          "code": "cm",
          "unit": "cm"
        },
        "text": {
          "status": "generated",
          "div": "<div xmlns=\"http://www.w3.org/1999/xhtml\"><table class=\"hl7__ips\"><tr><th>Vital Sign</th><th>Date</th><th>Measurement</th></tr><tr><td>Body Height</td><td>05-Sep-2024</td><td>181.4 cm</td></tr></table></div>"
        },
        "status": "final",
        "code": {
          "coding": [
            {
              "code": "8302-2",
              "system": "http://loinc.org",
              "display": "Body Height"
            }
          ]
        },
        "subject": {
          "reference": "urn:uuid:c0590b2c-187c-4c2c-9a82-f4d8a94b9a5f",
          "display": "Leon Dworniczak"
        },
        "effectiveDateTime": "2024-09-05"
      }
    },
    {
      "fullUrl": "urn:uuid:9a264ad3-0d0c-451f-acf7-c09491399d48",
      "resource": {
        "resourceType": "Observation",
        "id": "9a264ad3-0d0c-451f-acf7-c09491399d48",
        "meta": {
          "profile": [
            "http://hl7.org/fhir/StructureDefinition/vitalsigns"
          ]
        },
        "category": [
          {
            "coding": [
              {
                "system": "http://terminology.hl7.org/CodeSystem/observation-category",
                "code": "vital-signs",
                "display": "Vital Signs"
              }
            ]
          }
        ],
        "valueQuantity": {
          "value": 3,
          "code": "{score}",
          "unit": "{score}"
        },
        "text": {
          "status": "generated",
          "div": "<div xmlns=\"http://www.w3.org/1999/xhtml\"><table class=\"hl7__ips\"><tr><th>Vital Sign</th><th>Date</th><th>Measurement</th></tr><tr><td>Pain severity - 0-10 verbal numeric rating [Score] - Reported</td><td>05-Sep-2024</td><td>3 {score}</td></tr></table></div>"
        },
        "status": "final",
        "code": {
          "coding": [
            {
              "code": "72514-3",
              "system": "http://loinc.org",
              "display": "Pain severity - 0-10 verbal numeric rating [Score] - Reported"
            }
          ]
        },
        "subject": {
          "reference": "urn:uuid:c0590b2c-187c-4c2c-9a82-f4d8a94b9a5f",
          "display": "Leon Dworniczak"
        },
        "effectiveDateTime": "2024-09-05"
      }
    },
    {
      "fullUrl": "urn:uuid:d372f33f-b65c-4288-9bfc-dd884b10bd32",
      "resource": {
        "resourceType": "Observation",
        "id": "d372f33f-b65c-4288-9bfc-dd884b10bd32",
        "meta": {
          "profile": [
            "http://hl7.org/fhir/StructureDefinition/vitalsigns"
          ]
        },
        "category": [
          {
            "coding": [
              {
                "system": "http://terminology.hl7.org/CodeSystem/observation-category",
                "code": "vital-signs",
                "display": "Vital Signs"
              }
            ]
          }
        ],
        "valueQuantity": {
          "value": 97,
          "code": "kg",
          "unit": "kg"
        },
        "text": {
          "status": "generated",
          "div": "<div xmlns=\"http://www.w3.org/1999/xhtml\"><table class=\"hl7__ips\"><tr><th>Vital Sign</th><th>Date</th><th>Measurement</th></tr><tr><td>Body Weight</td><td>05-Sep-2024</td><td>97 kg</td></tr></table></div>"
        },
        "status": "final",
        "code": {
          "coding": [
            {
              "code": "29463-7",
              "system": "http://loinc.org",
              "display": "Body Weight"
            }
          ]
        },
        "subject": {
          "reference": "urn:uuid:c0590b2c-187c-4c2c-9a82-f4d8a94b9a5f",
          "display": "Leon Dworniczak"
        },
        "effectiveDateTime": "2024-09-05"
      }
    },
    {
      "fullUrl": "urn:uuid:4a9abf96-d989-4f6f-a5ac-64363e9983b2",
      "resource": {
        "resourceType": "Observation",
        "id": "4a9abf96-d989-4f6f-a5ac-64363e9983b2",
        "meta": {
          "profile": [
            "http://hl7.org/fhir/StructureDefinition/vitalsigns"
          ]
        },
        "category": [
          {
            "coding": [
              {
                "system": "http://terminology.hl7.org/CodeSystem/observation-category",
                "code": "vital-signs",
                "display": "Vital Signs"
              }
            ]
          }
        ],
        "valueQuantity": {
          "value": 29.5,
          "code": "kg/m2",
          "unit": "kg/m2"
        },
        "text": {
          "status": "generated",
          "div": "<div xmlns=\"http://www.w3.org/1999/xhtml\"><table class=\"hl7__ips\"><tr><th>Vital Sign</th><th>Date</th><th>Measurement</th></tr><tr><td>Body mass index (BMI) [Ratio]</td><td>05-Sep-2024</td><td>29.5 kg/m2</td></tr></table></div>"
        },
        "status": "final",
        "code": {
          "coding": [
            {
              "code": "39156-5",
              "system": "http://loinc.org",
              "display": "Body mass index (BMI) [Ratio]"
            }
          ]
        },
        "subject": {
          "reference": "urn:uuid:c0590b2c-187c-4c2c-9a82-f4d8a94b9a5f",
          "display": "Leon Dworniczak"
        },
        "effectiveDateTime": "2024-09-05"
      }
    },
    {
      "fullUrl": "urn:uuid:e8a18511-6044-43f4-97e0-a54a30b2673b",
      "resource": {
        "resourceType": "Observation",
        "id": "e8a18511-6044-43f4-97e0-a54a30b2673b",
        "meta": {
          "profile": [
            "http://hl7.org/fhir/StructureDefinition/vitalsigns"
          ]
        },
        "category": [
          {
            "coding": [
              {
                "system": "http://terminology.hl7.org/CodeSystem/observation-category",
                "code": "vital-signs",
                "display": "Vital Signs"
              }
            ]
          }
        ],
        "valueQuantity": {
          "value": 80,
          "code": "mm[Hg]",
          "unit": "mm[Hg]"
        },
        "text": {
          "status": "generated",
          "div": "<div xmlns=\"http://www.w3.org/1999/xhtml\"><table class=\"hl7__ips\"><tr><th>Vital Sign</th><th>Date</th><th>Measurement</th></tr><tr><td>Diastolic Blood Pressure</td><td>05-Sep-2024</td><td>80 mm[Hg]</td></tr></table></div>"
        },
        "status": "final",
        "code": {
          "coding": [
            {
              "code": "8462-4",
              "system": "http://loinc.org",
              "display": "Diastolic Blood Pressure"
            }
          ]
        },
        "subject": {
          "reference": "urn:uuid:c0590b2c-187c-4c2c-9a82-f4d8a94b9a5f",
          "display": "Leon Dworniczak"
        },
        "effectiveDateTime": "2024-09-05"
      }
    },
    {
      "fullUrl": "urn:uuid:39969701-399d-4f53-b13e-4d161b3658e0",
      "resource": {
        "resourceType": "Observation",
        "id": "39969701-399d-4f53-b13e-4d161b3658e0",
        "meta": {
          "profile": [
            "http://hl7.org/fhir/StructureDefinition/vitalsigns"
          ]
        },
        "category": [
          {
            "coding": [
              {
                "system": "http://terminology.hl7.org/CodeSystem/observation-category",
                "code": "vital-signs",
                "display": "Vital Signs"
              }
            ]
          }
        ],
        "valueQuantity": {
          "value": 131,
          "code": "mm[Hg]",
          "unit": "mm[Hg]"
        },
        "text": {
          "status": "generated",
          "div": "<div xmlns=\"http://www.w3.org/1999/xhtml\"><table class=\"hl7__ips\"><tr><th>Vital Sign</th><th>Date</th><th>Measurement</th></tr><tr><td>Systolic Blood Pressure</td><td>05-Sep-2024</td><td>131 mm[Hg]</td></tr></table></div>"
        },
        "status": "final",
        "code": {
          "coding": [
            {
              "code": "8480-6",
              "system": "http://loinc.org",
              "display": "Systolic Blood Pressure"
            }
          ]
        },
        "subject": {
          "reference": "urn:uuid:c0590b2c-187c-4c2c-9a82-f4d8a94b9a5f",
          "display": "Leon Dworniczak"
        },
        "effectiveDateTime": "2024-09-05"
      }
    },
    {
      "fullUrl": "urn:uuid:35cc8605-a0c1-4d66-802c-f5fb4cdd0588",
      "resource": {
        "resourceType": "Observation",
        "id": "35cc8605-a0c1-4d66-802c-f5fb4cdd0588",
        "meta": {
          "profile": [
            "http://hl7.org/fhir/StructureDefinition/vitalsigns"
          ]
        },
        "category": [
          {
            "coding": [
              {
                "system": "http://terminology.hl7.org/CodeSystem/observation-category",
                "code": "vital-signs",
                "display": "Vital Signs"
              }
            ]
          }
        ],
        "valueQuantity": {
          "value": 87,
          "code": "/min",
          "unit": "/min"
        },
        "text": {
          "status": "generated",
          "div": "<div xmlns=\"http://www.w3.org/1999/xhtml\"><table class=\"hl7__ips\"><tr><th>Vital Sign</th><th>Date</th><th>Measurement</th></tr><tr><td>Heart rate</td><td>05-Sep-2024</td><td>87 /min</td></tr></table></div>"
        },
        "status": "final",
        "code": {
          "coding": [
            {
              "code": "8867-4",
              "system": "http://loinc.org",
              "display": "Heart rate"
            }
          ]
        },
        "subject": {
          "reference": "urn:uuid:c0590b2c-187c-4c2c-9a82-f4d8a94b9a5f",
          "display": "Leon Dworniczak"
        },
        "effectiveDateTime": "2024-09-05"
      }
    },
    {
      "fullUrl": "urn:uuid:ad1f6008-8aa1-4ed5-a37b-54ca1207e21b",
      "resource": {
        "resourceType": "Observation",
        "id": "ad1f6008-8aa1-4ed5-a37b-54ca1207e21b",
        "meta": {
          "profile": [
            "http://hl7.org/fhir/StructureDefinition/vitalsigns"
          ]
        },
        "category": [
          {
            "coding": [
              {
                "system": "http://terminology.hl7.org/CodeSystem/observation-category",
                "code": "vital-signs",
                "display": "Vital Signs"
              }
            ]
          }
        ],
        "valueQuantity": {
          "value": 14,
          "code": "/min",
          "unit": "/min"
        },
        "text": {
          "status": "generated",
          "div": "<div xmlns=\"http://www.w3.org/1999/xhtml\"><table class=\"hl7__ips\"><tr><th>Vital Sign</th><th>Date</th><th>Measurement</th></tr><tr><td>Respiratory rate</td><td>05-Sep-2024</td><td>14 /min</td></tr></table></div>"
        },
        "status": "final",
        "code": {
          "coding": [
            {
              "code": "9279-1",
              "system": "http://loinc.org",
              "display": "Respiratory rate"
            }
          ]
        },
        "subject": {
          "reference": "urn:uuid:c0590b2c-187c-4c2c-9a82-f4d8a94b9a5f",
          "display": "Leon Dworniczak"
        },
        "effectiveDateTime": "2024-09-05"
      }
    },
    {
      "fullUrl": "urn:uuid:1144b217-cb92-461a-a3d4-37228b5ac4f9",
      "resource": {
        "resourceType": "Observation",
        "id": "1144b217-cb92-461a-a3d4-37228b5ac4f9",
        "meta": {
          "profile": [
            "http://hl7.eu/fhir/laboratory/StructureDefinition/Observation-resultslab-eu-lab"
          ]
        },
        "performer": [
          {
            "display": "The Central European Lab"
          }
        ],
        "category": [
          {
            "coding": [
              {
                "system": "http://terminology.hl7.org/CodeSystem/observation-category",
                "code": "laboratory"
              }
            ]
          }
        ],
        "code": {
          "coding": [
            {
              "code": "4548-4",
              "system": "http://loinc.org",
              "display": "Hemoglobin A1c/Hemoglobin.total in Blood"
            }
          ],
          "text": "Hemoglobin A1c/Hemoglobin.total in Blood"
        },
        "valueQuantity": {
          "system": "http://unitsofmeasure.org",
          "value": 6.2,
          "unit": "%",
          "code": "%"
        },
        "referenceRange": [
          {
            "low": {
              "value": 4,
              "code": "%",
              "system": "http://unitsofmeasure.org"
            }
          },
          {
            "high": {
              "value": 6,
              "code": "%",
              "system": "http://unitsofmeasure.org"
            }
          }
        ],
        "interpretation": [
          {
            "coding": [
              {
                "code": "H",
                "system": "http://terminology.hl7.org/CodeSystem/v3-ObservationInterpretation",
                "display": "High"
              }
            ]
          }
        ],
        "text": {
          "status": "generated",
          "div": "<div xmlns=\"http://www.w3.org/1999/xhtml\"><table class=\"hl7__eu__lab__report\"><tr><th>Test</th><th>19-Dec-2024</th><th>Reference&#xA0;Range</th><th>Unit</th></tr><tr><td>Hemoglobin A1c/Hemoglobin.total in Blood</td><td>6.2</td><td>4 - 6</td><td>H</td><td>%</td></tr></table></div>"
        },
        "status": "final",
        "subject": {
          "reference": "urn:uuid:c0590b2c-187c-4c2c-9a82-f4d8a94b9a5f",
          "display": "Leon Dworniczak"
        },
        "effectiveDateTime": "2024-12-19T08:19:35Z"
      }
    },
    {
      "fullUrl": "urn:uuid:bd851c63-5fc9-4132-b6d4-51b0f2575bea",
      "resource": {
        "resourceType": "Observation",
        "id": "bd851c63-5fc9-4132-b6d4-51b0f2575bea",
        "meta": {
          "profile": [
            "http://hl7.eu/fhir/laboratory/StructureDefinition/Observation-resultslab-eu-lab"
          ]
        },
        "performer": [
          {
            "display": "The Central European Lab"
          }
        ],
        "category": [
          {
            "coding": [
              {
                "system": "http://terminology.hl7.org/CodeSystem/observation-category",
                "code": "laboratory"
              }
            ]
          }
        ],
        "code": {
          "coding": [
            {
              "code": "2339-0",
              "system": "http://loinc.org",
              "display": "Glucose [Mass/volume] in Blood"
            }
          ],
          "text": "Glucose [Mass/volume] in Blood"
        },
        "valueQuantity": {
          "system": "http://unitsofmeasure.org",
          "value": 79.2,
          "unit": "mg/dL",
          "code": "mg/dL"
        },
        "referenceRange": [
          {
            "low": {
              "value": 70,
              "code": "mg/dL",
              "system": "http://unitsofmeasure.org"
            }
          },
          {
            "high": {
              "value": 99,
              "code": "mg/dL",
              "system": "http://unitsofmeasure.org"
            }
          }
        ],
        "text": {
          "status": "generated",
          "div": "<div xmlns=\"http://www.w3.org/1999/xhtml\"><table class=\"hl7__eu__lab__report\"><tr><th>Test</th><th>19-Dec-2024</th><th>Reference&#xA0;Range</th><th>Unit</th></tr><tr><td>Glucose [Mass/volume] in Blood</td><td>79.2</td><td>70 - 99</td><td></td><td>mg/dL</td></tr></table></div>"
        },
        "status": "final",
        "subject": {
          "reference": "urn:uuid:c0590b2c-187c-4c2c-9a82-f4d8a94b9a5f",
          "display": "Leon Dworniczak"
        },
        "effectiveDateTime": "2024-12-19T08:19:35Z"
      }
    },
    {
      "fullUrl": "urn:uuid:de807fe5-dd87-499d-b8fe-7889e5ce416b",
      "resource": {
        "resourceType": "Observation",
        "id": "de807fe5-dd87-499d-b8fe-7889e5ce416b",
        "meta": {
          "profile": [
            "http://hl7.eu/fhir/laboratory/StructureDefinition/Observation-resultslab-eu-lab"
          ]
        },
        "performer": [
          {
            "display": "The Central European Lab"
          }
        ],
        "category": [
          {
            "coding": [
              {
                "system": "http://terminology.hl7.org/CodeSystem/observation-category",
                "code": "laboratory"
              }
            ]
          }
        ],
        "code": {
          "coding": [
            {
              "code": "6299-2",
              "system": "http://loinc.org",
              "display": "Urea nitrogen [Mass/volume] in Blood"
            }
          ],
          "text": "Urea nitrogen [Mass/volume] in Blood"
        },
        "valueQuantity": {
          "system": "http://unitsofmeasure.org",
          "value": 18.3,
          "unit": "mg/dL",
          "code": "mg/dL"
        },
        "referenceRange": [
          {
            "low": {
              "value": 7,
              "code": "mg/dL",
              "system": "http://unitsofmeasure.org"
            }
          },
          {
            "high": {
              "value": 43,
              "code": "mg/dL",
              "system": "http://unitsofmeasure.org"
            }
          }
        ],
        "text": {
          "status": "generated",
          "div": "<div xmlns=\"http://www.w3.org/1999/xhtml\"><table class=\"hl7__eu__lab__report\"><tr><th>Test</th><th>19-Dec-2024</th><th>Reference&#xA0;Range</th><th>Unit</th></tr><tr><td>Urea nitrogen [Mass/volume] in Blood</td><td>18.3</td><td>7 - 43</td><td></td><td>mg/dL</td></tr></table></div>"
        },
        "status": "final",
        "subject": {
          "reference": "urn:uuid:c0590b2c-187c-4c2c-9a82-f4d8a94b9a5f",
          "display": "Leon Dworniczak"
        },
        "effectiveDateTime": "2024-12-19T08:19:35Z"
      }
    },
    {
      "fullUrl": "urn:uuid:db0ba4a6-69c5-4a18-9724-14cdae433e10",
      "resource": {
        "resourceType": "Observation",
        "id": "db0ba4a6-69c5-4a18-9724-14cdae433e10",
        "meta": {
          "profile": [
            "http://hl7.eu/fhir/laboratory/StructureDefinition/Observation-resultslab-eu-lab"
          ]
        },
        "performer": [
          {
            "display": "The Central European Lab"
          }
        ],
        "category": [
          {
            "coding": [
              {
                "system": "http://terminology.hl7.org/CodeSystem/observation-category",
                "code": "laboratory"
              }
            ]
          }
        ],
        "code": {
          "coding": [
            {
              "code": "38483-4",
              "system": "http://loinc.org",
              "display": "Creatinine [Mass/volume] in Blood"
            }
          ],
          "text": "Creatinine [Mass/volume] in Blood"
        },
        "valueQuantity": {
          "system": "http://unitsofmeasure.org",
          "value": 1.3,
          "unit": "mg/dL",
          "code": "mg/dL"
        },
        "referenceRange": [
          {
            "low": {
              "value": 0.9,
              "code": "mg/dL",
              "system": "http://unitsofmeasure.org"
            }
          },
          {
            "high": {
              "value": 1.3,
              "code": "mg/dL",
              "system": "http://unitsofmeasure.org"
            }
          }
        ],
        "text": {
          "status": "generated",
          "div": "<div xmlns=\"http://www.w3.org/1999/xhtml\"><table class=\"hl7__eu__lab__report\"><tr><th>Test</th><th>19-Dec-2024</th><th>Reference&#xA0;Range</th><th>Unit</th></tr><tr><td>Creatinine [Mass/volume] in Blood</td><td>1.3</td><td>0.9 - 1.3</td><td></td><td>mg/dL</td></tr></table></div>"
        },
        "status": "final",
        "subject": {
          "reference": "urn:uuid:c0590b2c-187c-4c2c-9a82-f4d8a94b9a5f",
          "display": "Leon Dworniczak"
        },
        "effectiveDateTime": "2024-12-19T08:19:35Z"
      }
    },
    {
      "fullUrl": "urn:uuid:04154eeb-bc4f-4f93-b0e9-67ed40dce08a",
      "resource": {
        "resourceType": "Observation",
        "id": "04154eeb-bc4f-4f93-b0e9-67ed40dce08a",
        "meta": {
          "profile": [
            "http://hl7.eu/fhir/laboratory/StructureDefinition/Observation-resultslab-eu-lab"
          ]
        },
        "performer": [
          {
            "display": "The Central European Lab"
          }
        ],
        "category": [
          {
            "coding": [
              {
                "system": "http://terminology.hl7.org/CodeSystem/observation-category",
                "code": "laboratory"
              }
            ]
          }
        ],
        "code": {
          "coding": [
            {
              "code": "49765-1",
              "system": "http://loinc.org",
              "display": "Calcium [Mass/volume] in Blood"
            }
          ],
          "text": "Calcium [Mass/volume] in Blood"
        },
        "valueQuantity": {
          "system": "http://unitsofmeasure.org",
          "value": 9.8,
          "unit": "mg/dL",
          "code": "mg/dL"
        },
        "referenceRange": [
          {
            "low": {
              "value": 8.5,
              "code": "mg/dL",
              "system": "http://unitsofmeasure.org"
            }
          },
          {
            "high": {
              "value": 10.5,
              "code": "mg/dL",
              "system": "http://unitsofmeasure.org"
            }
          }
        ],
        "text": {
          "status": "generated",
          "div": "<div xmlns=\"http://www.w3.org/1999/xhtml\"><table class=\"hl7__eu__lab__report\"><tr><th>Test</th><th>19-Dec-2024</th><th>Reference&#xA0;Range</th><th>Unit</th></tr><tr><td>Calcium [Mass/volume] in Blood</td><td>9.8</td><td>8.5 - 10.5</td><td></td><td>mg/dL</td></tr></table></div>"
        },
        "status": "final",
        "subject": {
          "reference": "urn:uuid:c0590b2c-187c-4c2c-9a82-f4d8a94b9a5f",
          "display": "Leon Dworniczak"
        },
        "effectiveDateTime": "2024-12-19T08:19:35Z"
      }
    },
    {
      "fullUrl": "urn:uuid:dc46a9c1-6456-441e-a685-7603b885d054",
      "resource": {
        "resourceType": "Observation",
        "id": "dc46a9c1-6456-441e-a685-7603b885d054",
        "meta": {
          "profile": [
            "http://hl7.eu/fhir/laboratory/StructureDefinition/Observation-resultslab-eu-lab"
          ]
        },
        "performer": [
          {
            "display": "The Central European Lab"
          }
        ],
        "category": [
          {
            "coding": [
              {
                "system": "http://terminology.hl7.org/CodeSystem/observation-category",
                "code": "laboratory"
              }
            ]
          }
        ],
        "code": {
          "coding": [
            {
              "code": "2947-0",
              "system": "http://loinc.org",
              "display": "Sodium [Moles/volume] in Blood"
            }
          ],
          "text": "Sodium [Moles/volume] in Blood"
        },
        "valueQuantity": {
          "system": "http://unitsofmeasure.org",
          "value": 141.3,
          "unit": "mmol/L",
          "code": "mmol/L"
        },
        "referenceRange": [
          {
            "low": {
              "value": 135,
              "code": "mmol/L",
              "system": "http://unitsofmeasure.org"
            }
          },
          {
            "high": {
              "value": 145,
              "code": "mmol/L",
              "system": "http://unitsofmeasure.org"
            }
          }
        ],
        "text": {
          "status": "generated",
          "div": "<div xmlns=\"http://www.w3.org/1999/xhtml\"><table class=\"hl7__eu__lab__report\"><tr><th>Test</th><th>19-Dec-2024</th><th>Reference&#xA0;Range</th><th>Unit</th></tr><tr><td>Sodium [Moles/volume] in Blood</td><td>141.3</td><td>135 - 145</td><td></td><td>mmol/L</td></tr></table></div>"
        },
        "status": "final",
        "subject": {
          "reference": "urn:uuid:c0590b2c-187c-4c2c-9a82-f4d8a94b9a5f",
          "display": "Leon Dworniczak"
        },
        "effectiveDateTime": "2024-12-19T08:19:35Z"
      }
    },
    {
      "fullUrl": "urn:uuid:45f7f99e-b90b-4084-9320-5fbb3dd1137b",
      "resource": {
        "resourceType": "Observation",
        "id": "45f7f99e-b90b-4084-9320-5fbb3dd1137b",
        "meta": {
          "profile": [
            "http://hl7.eu/fhir/laboratory/StructureDefinition/Observation-resultslab-eu-lab"
          ]
        },
        "performer": [
          {
            "display": "The Central European Lab"
          }
        ],
        "category": [
          {
            "coding": [
              {
                "system": "http://terminology.hl7.org/CodeSystem/observation-category",
                "code": "laboratory"
              }
            ]
          }
        ],
        "code": {
          "coding": [
            {
              "code": "6298-4",
              "system": "http://loinc.org",
              "display": "Potassium [Moles/volume] in Blood"
            }
          ],
          "text": "Potassium [Moles/volume] in Blood"
        },
        "valueQuantity": {
          "system": "http://unitsofmeasure.org",
          "value": 4.2,
          "unit": "mmol/L",
          "code": "mmol/L"
        },
        "referenceRange": [
          {
            "low": {
              "value": 3.5,
              "code": "mmol/L",
              "system": "http://unitsofmeasure.org"
            }
          },
          {
            "high": {
              "value": 5.3,
              "code": "mmol/L",
              "system": "http://unitsofmeasure.org"
            }
          }
        ],
        "text": {
          "status": "generated",
          "div": "<div xmlns=\"http://www.w3.org/1999/xhtml\"><table class=\"hl7__eu__lab__report\"><tr><th>Test</th><th>19-Dec-2024</th><th>Reference&#xA0;Range</th><th>Unit</th></tr><tr><td>Potassium [Moles/volume] in Blood</td><td>4.2</td><td>3.5 - 5.3</td><td></td><td>mmol/L</td></tr></table></div>"
        },
        "status": "final",
        "subject": {
          "reference": "urn:uuid:c0590b2c-187c-4c2c-9a82-f4d8a94b9a5f",
          "display": "Leon Dworniczak"
        },
        "effectiveDateTime": "2024-12-19T08:19:35Z"
      }
    },
    {
      "fullUrl": "urn:uuid:63a0b1b0-a069-4940-a6a3-e42b728b748a",
      "resource": {
        "resourceType": "Observation",
        "id": "63a0b1b0-a069-4940-a6a3-e42b728b748a",
        "meta": {
          "profile": [
            "http://hl7.eu/fhir/laboratory/StructureDefinition/Observation-resultslab-eu-lab"
          ]
        },
        "performer": [
          {
            "display": "The Central European Lab"
          }
        ],
        "category": [
          {
            "coding": [
              {
                "system": "http://terminology.hl7.org/CodeSystem/observation-category",
                "code": "laboratory"
              }
            ]
          }
        ],
        "code": {
          "coding": [
            {
              "code": "2069-3",
              "system": "http://loinc.org",
              "display": "Chloride [Moles/volume] in Blood"
            }
          ],
          "text": "Chloride [Moles/volume] in Blood"
        },
        "valueQuantity": {
          "system": "http://unitsofmeasure.org",
          "value": 106.1,
          "unit": "mmol/L",
          "code": "mmol/L"
        },
        "referenceRange": [
          {
            "low": {
              "value": 98,
              "code": "mmol/L",
              "system": "http://unitsofmeasure.org"
            }
          },
          {
            "high": {
              "value": 108,
              "code": "mmol/L",
              "system": "http://unitsofmeasure.org"
            }
          }
        ],
        "text": {
          "status": "generated",
          "div": "<div xmlns=\"http://www.w3.org/1999/xhtml\"><table class=\"hl7__eu__lab__report\"><tr><th>Test</th><th>19-Dec-2024</th><th>Reference&#xA0;Range</th><th>Unit</th></tr><tr><td>Chloride [Moles/volume] in Blood</td><td>106.1</td><td>98 - 108</td><td></td><td>mmol/L</td></tr></table></div>"
        },
        "status": "final",
        "subject": {
          "reference": "urn:uuid:c0590b2c-187c-4c2c-9a82-f4d8a94b9a5f",
          "display": "Leon Dworniczak"
        },
        "effectiveDateTime": "2024-12-19T08:19:35Z"
      }
    },
    {
      "fullUrl": "urn:uuid:26004f8d-da66-47c4-b783-e4c385fda83a",
      "resource": {
        "resourceType": "Observation",
        "id": "26004f8d-da66-47c4-b783-e4c385fda83a",
        "meta": {
          "profile": [
            "http://hl7.eu/fhir/laboratory/StructureDefinition/Observation-resultslab-eu-lab"
          ]
        },
        "performer": [
          {
            "display": "The Central European Lab"
          }
        ],
        "category": [
          {
            "coding": [
              {
                "system": "http://terminology.hl7.org/CodeSystem/observation-category",
                "code": "laboratory"
              }
            ]
          }
        ],
        "code": {
          "coding": [
            {
              "code": "20565-8",
              "system": "http://loinc.org",
              "display": "Carbon dioxide, total [Moles/volume] in Blood"
            }
          ],
          "text": "Carbon dioxide, total [Moles/volume] in Blood"
        },
        "valueQuantity": {
          "system": "http://unitsofmeasure.org",
          "value": 22.8,
          "unit": "mmol/L",
          "code": "mmol/L"
        },
        "referenceRange": [
          {
            "low": {
              "value": 22,
              "code": "mmol/L",
              "system": "http://unitsofmeasure.org"
            }
          },
          {
            "high": {
              "value": 29,
              "code": "mmol/L",
              "system": "http://unitsofmeasure.org"
            }
          }
        ],
        "text": {
          "status": "generated",
          "div": "<div xmlns=\"http://www.w3.org/1999/xhtml\"><table class=\"hl7__eu__lab__report\"><tr><th>Test</th><th>19-Dec-2024</th><th>Reference&#xA0;Range</th><th>Unit</th></tr><tr><td>Carbon dioxide, total [Moles/volume] in Blood</td><td>22.8</td><td>22 - 29</td><td></td><td>mmol/L</td></tr></table></div>"
        },
        "status": "final",
        "subject": {
          "reference": "urn:uuid:c0590b2c-187c-4c2c-9a82-f4d8a94b9a5f",
          "display": "Leon Dworniczak"
        },
        "effectiveDateTime": "2024-12-19T08:19:35Z"
      }
    },
    {
      "fullUrl": "urn:uuid:b32fdad3-1d23-406b-afab-bbe22fa1c158",
      "resource": {
        "resourceType": "DeviceUseStatement",
        "id": "b32fdad3-1d23-406b-afab-bbe22fa1c158",
        "meta": {
          "profile": [
            "http://hl7.eu/fhir/eps/StructureDefinition/deviceUseStatement-eu-eps"
          ]
        },
        "timingPeriod": {
          "start": "2022-10-01"
        },
        "text": {
          "status": "generated",
          "div": "<div xmlns=\"http://www.w3.org/1999/xhtml\"><table class=\"hl7__ips\"><tr><td>Home nebulizer (physical object)</td><td><span class=\"nb\">01-Oct-2022</span></td></tr></table></div>"
        },
        "status": "active",
        "device": {
          "reference": "urn:uuid:d12c8537-cc34-4f19-a71a-89bdf0842477",
          "display": "Home nebulizer (physical object)"
        },
        "subject": {
          "reference": "urn:uuid:c0590b2c-187c-4c2c-9a82-f4d8a94b9a5f",
          "display": "Leon Dworniczak"
        }
      }
    },
    {
      "fullUrl": "urn:uuid:d12c8537-cc34-4f19-a71a-89bdf0842477",
      "resource": {
        "resourceType": "Device",
        "id": "d12c8537-cc34-4f19-a71a-89bdf0842477",
        "meta": {
          "profile": [
            "http://hl7.eu/fhir/eps/StructureDefinition/device-eu-eps"
          ]
        },
        "udiCarrier": [
          {
            "id": "(01)73440352891965(11)220911(17)470926(10)896420646540(21)720943188049813654"
          }
        ],
        "status": "active",
        "patient": {
          "reference": "urn:uuid:c0590b2c-187c-4c2c-9a82-f4d8a94b9a5f",
          "display": "Leon Dworniczak"
        },
        "type": {
          "coding": [
            {
              "code": "170615005",
              "system": "http://snomed.info/sct",
              "display": "Home nebulizer (physical object)"
            }
          ]
        }
      }
    },
    {
      "fullUrl": "urn:uuid:4aa07bbf-8737-43be-bc0a-4c3b8e60f946",
      "resource": {
        "resourceType": "DeviceUseStatement",
        "id": "4aa07bbf-8737-43be-bc0a-4c3b8e60f946",
        "meta": {
          "profile": [
            "http://hl7.eu/fhir/eps/StructureDefinition/deviceUseStatement-eu-eps"
          ]
        },
        "timingPeriod": {
          "start": "2017-12-28"
        },
        "text": {
          "status": "generated",
          "div": "<div xmlns=\"http://www.w3.org/1999/xhtml\"><table class=\"hl7__ips\"><tr><td>Blood glucose meter (physical object)</td><td><span class=\"nb\">28-Dec-2017</span></td></tr></table></div>"
        },
        "status": "active",
        "device": {
          "reference": "urn:uuid:9373740b-2aab-4ee5-a302-5f596161d043",
          "display": "Blood glucose meter (physical object)"
        },
        "subject": {
          "reference": "urn:uuid:c0590b2c-187c-4c2c-9a82-f4d8a94b9a5f",
          "display": "Leon Dworniczak"
        }
      }
    },
    {
      "fullUrl": "urn:uuid:9373740b-2aab-4ee5-a302-5f596161d043",
      "resource": {
        "resourceType": "Device",
        "id": "9373740b-2aab-4ee5-a302-5f596161d043",
        "meta": {
          "profile": [
            "http://hl7.eu/fhir/eps/StructureDefinition/device-eu-eps"
          ]
        },
        "udiCarrier": [
          {
            "id": "(01)75068140185063(11)171207(17)421222(10)76517742310022403(21)49461"
          }
        ],
        "status": "active",
        "patient": {
          "reference": "urn:uuid:c0590b2c-187c-4c2c-9a82-f4d8a94b9a5f",
          "display": "Leon Dworniczak"
        },
        "type": {
          "coding": [
            {
              "code": "337414009",
              "system": "http://snomed.info/sct",
              "display": "Blood glucose meter (physical object)"
            }
          ]
        }
      }
    },
    {
      "fullUrl": "urn:uuid:9a2386e4-9760-4030-a53b-314468c9db51",
      "resource": {
        "resourceType": "Device",
        "id": "9a2386e4-9760-4030-a53b-314468c9db51",
        "deviceName": [
          {
            "name": "SYNDERAI Synthetic Generator",
            "type": "manufacturer-name"
          }
        ],
        "version": [
          {
            "value": "5.0"
          }
        ],
        "text": {
          "status": "generated",
          "div": "<div xmlns=\"http://www.w3.org/1999/xhtml\">SYNDERAI Synthetic Generator v5.0</div>"
        },
        "status": "active",
        "distinctIdentifier": "synderai-generator-50",
        "manufacturer": "SYNDERAI Project"
      }
    },
    {
      "fullUrl": "urn:uuid:259efbb8-f8b1-40b0-83c4-7ebf8c020ed9",
      "resource": {
        "resourceType": "Provenance",
        "id": "259efbb8-f8b1-40b0-83c4-7ebf8c020ed9",
        "target": [
          {
            "reference": "Patient/c0590b2c-187c-4c2c-9a82-f4d8a94b9a5f"
          },
          {
            "reference": "Bundle/eaed82c0-2bf1-4632-87e9-b7c535c33ef2"
          },
          {
            "reference": "Composition/b7887265-848c-4b76-8a52-a53977bb0bf4"
          },
          {
            "reference": "PractitionerRole/d4b8a726-4687-4b90-a018-e038ac748f46"
          },
          {
            "reference": "Organization/091c17fe-7ef1-4435-8e95-0e8a800a012e"
          },
          {
            "reference": "Practitioner/5ba50cc4-be5a-4415-b720-03f061288fe7"
          }
        ],
        "activity": {
          "text": "Synthetic Example Data Generation"
        },
        "policy": [
          "https://synderai.net/synderai-synthetic-data-policy"
        ],
        "agent": [
          {
            "type": {
              "text": "author"
            },
            "who": {
              "reference": "Device/9a2386e4-9760-4030-a53b-314468c9db51"
            }
          }
        ],
        "reason": [
          {
            "text": "Interoperability Testing and Training (non-clinical use)"
          }
        ],
        "text": {
          "status": "generated",
          "div": "<div xmlns=\"http://www.w3.org/1999/xhtml\">Provenance for SYNDERAI Synthetic Example Data Resource</div>"
        },
        "recorded": "2024-12-19T08:19:35Z"
      }
    }
  ],
  "type": "document",
  "timestamp": "2024-12-19T08:19:35Z"
}
