{
  "resourceType": "Bundle",
  "id": "1885d146-a8de-4dcf-b405-9f568ab2625c",
  "meta": {
    "profile": [
      "http://hl7.eu/fhir/eps/StructureDefinition/bundle-eu-eps"
    ]
  },
  "identifier": {
    "assigner": {
      "display": "HL7 Europe"
    },
    "system": "urn:oid:2.16.840.1.113883.2.51.999",
    "value": "8aaf5bf1-30c3-45ab-88fb-48c552ec308e"
  },
  "entry": [
    {
      "fullUrl": "urn:uuid:17b6fb33-7dbf-4fae-a24e-aa772cba4cfc",
      "resource": {
        "resourceType": "Composition",
        "id": "17b6fb33-7dbf-4fae-a24e-aa772cba4cfc",
        "meta": {
          "security": [
            {
              "system": "http://terminology.hl7.org/CodeSystem/v3-ActReason",
              "code": "HTEST"
            },
            {
              "system": "http://terminology.hl7.org/CodeSystem/v3-ActReason",
              "code": "TRAIN"
            }
          ],
          "tag": [
            {
              "system": "https://synderai.net/fhir/CodeSystem/tags",
              "code": "synthetic",
              "display": "SYNDERAI Synthetic data"
            }
          ],
          "profile": [
            "http://hl7.eu/fhir/eps/StructureDefinition/composition-eu-eps"
          ]
        },
        "identifier": {
          "assigner": {
            "display": "HL7 Europe"
          },
          "system": "urn:oid:2.16.840.1.113883.2.51.999",
          "value": "a952fdbf-3617-45e5-ae05-64f541f7e007"
        },
        "type": {
          "coding": [
            {
              "code": "60591-5",
              "system": "http://loinc.org",
              "display": "Patient summary Document"
            }
          ],
          "text": "Patient summary Document"
        },
        "author": [
          {
            "reference": "urn:uuid:85d7a127-6afc-4156-b3da-574235d429d0"
          }
        ],
        "section": [
          {
            "text": {
              "status": "generated",
              "div": "<div xmlns=\"http://www.w3.org/1999/xhtml\"><table class=\"hl7__ips\"><tr><th>Condition</th><th>Onset Date</th><th>Status</th></tr><tr><td>Osteoarthritis of knee</td><td><span class=\"nb\">21-Jan-2020</span></td><td>active</td></tr><tr><td>Fibromyalgia</td><td><span class=\"nb\">04-Feb-2014</span></td><td>active</td></tr><tr><td>Chronic sinusitis</td><td><span class=\"nb\">29-Jan-2002</span></td><td>active</td></tr></table></div>"
            },
            "entry": [
              {
                "reference": "urn:uuid:b4ceb5d5-a33a-4c0a-89c1-3216dee13693"
              }
            ],
            "code": {
              "coding": [
                {
                  "system": "http://loinc.org",
                  "code": "11450-4",
                  "display": "Problem list - Reported"
                }
              ]
            },
            "title": "Problem list"
          },
          {
            "text": {
              "status": "generated",
              "div": "<div xmlns=\"http://www.w3.org/1999/xhtml\"><table class=\"hl7__ips\"><tr><td>No known medications</td></tr></table></div>"
            },
            "entry": [
              {
                "reference": "urn:uuid:b4f5357d-126e-43c1-9b96-be41d1cd3173"
              }
            ],
            "code": {
              "coding": [
                {
                  "system": "http://loinc.org",
                  "code": "10160-0",
                  "display": "History of Medication use Narrative"
                }
              ]
            },
            "title": "Medication list"
          },
          {
            "text": {
              "status": "generated",
              "div": "<div xmlns=\"http://www.w3.org/1999/xhtml\"><table class=\"hl7__ips\"><tr><th>Vaccine</th><th>Date</th></tr><tr><td>Influenza virus antigen only vaccine product</td><td><span class=\"nb\">10-Nov-2024</span></td></tr><tr><td>SARS-CoV-2 mRNA vaccine</td><td><span class=\"nb\">28-Mar-2021</span></td></tr><tr><td>Hepatitis A virus antigen only vaccine product</td><td><span class=\"nb\">01-Oct-2017</span></td></tr><tr><td>Clostridium tetani toxoid antigen adsorbed only vaccine product</td><td><span class=\"nb\">01-Oct-2017</span></td></tr></table></div>"
            },
            "entry": [
              {
                "reference": "urn:uuid:d0d756e6-f23e-4a8d-952a-84f84f1fc8bb"
              }
            ],
            "code": {
              "coding": [
                {
                  "system": "http://loinc.org",
                  "code": "11369-6",
                  "display": "History of Immunization note"
                }
              ]
            },
            "title": "Immunizations list"
          },
          {
            "text": {
              "status": "generated",
              "div": "<div xmlns=\"http://www.w3.org/1999/xhtml\"><table class=\"hl7__ips\"><tr><th>Procedure</th><th>Date</th><th>Reason</th></tr><tr><td>Epidural anesthesia</td><td><span class=\"nb\">27-Jan-2019</span></td><td>Normal pregnancy</td></tr><tr><td>Parturition</td><td><span class=\"nb\">27-Jan-2019</span></td><td>Normal pregnancy</td></tr></table></div>"
            },
            "entry": [
              {
                "reference": "urn:uuid:eb50e1a1-3ef4-4bc1-9a77-2a4ea6f5304c"
              }
            ],
            "code": {
              "coding": [
                {
                  "system": "http://loinc.org",
                  "code": "47519-4",
                  "display": "History of Procedures Document"
                }
              ]
            },
            "title": "Procedure History list"
          },
          {
            "text": {
              "status": "generated",
              "div": "<div xmlns=\"http://www.w3.org/1999/xhtml\"><table class=\"hl7__ips\"><tr><th>Allergy/Intolerance</th><th>Onset Date</th><th>Status</th><th>Type</th><th>Reaction</th></tr><tr><td>Allergy to substance</td><td><span class=\"nb\">1977-08-09</span></td><td>active</td><td>environment</td><td></td></tr><tr><td>Shellfish</td><td><span class=\"nb\">1977-08-09</span></td><td>active</td><td>food</td><td>Anaphylaxis (disorder)&lt;br> &lt;/br>Eruption of skin (disorder)</td></tr></table></div>"
            },
            "entry": [
              {
                "reference": "urn:uuid:d60580bd-c956-4b7c-9305-940df95ac4e7"
              }
            ],
            "code": {
              "coding": [
                {
                  "system": "http://loinc.org",
                  "code": "48765-2",
                  "display": "Allergies and adverse reactions Document"
                }
              ]
            },
            "title": "Allergies and Intolerances"
          },
          {
            "text": {
              "status": "generated",
              "div": "<div xmlns=\"http://www.w3.org/1999/xhtml\"><table class=\"hl7__ips\"><tr><th>Active Planned Care / Goals</th><th>Start Date</th><th>Reason</th></tr><tr><td>Musculoskeletal care</td><td><span class=\"nb\">21-Jan-2020</span></td><td>Osteoarthritis of knee</td></tr><tr><td><ul><li>Reduce knee pain severity to a tolerable level to improve function and quality of life.</li><li>Increase ability to perform daily activities such as walking and climbing stairs.</li><li>Complete prescribed knee strengthening and flexibility exercises as recommended.</li></ul></td><td></td><td></td></tr><tr><td>Self-care interventions</td><td><span class=\"nb\">24-Jul-1977</span></td><td>-</td></tr></table></div>"
            },
            "title": "Care Plan",
            "code": {
              "coding": [
                {
                  "code": "18776-5",
                  "system": "http://loinc.org",
                  "display": "Plan of care note"
                }
              ]
            }
          },
          {
            "text": {
              "status": "generated",
              "div": "<div xmlns=\"http://www.w3.org/1999/xhtml\"><table class=\"hl7__ips\"><tr><th>Vital Signs</th><th>2024-11-10</th><th>2023-11-05</th></tr><tr><td>Body Height</td><td>168.1 cm</td><td>168.1 cm</td></tr><tr><td>Pain severity - 0-10 verbal numeric rating [Score] - Reported</td><td>3 {score}</td><td>1 {score}</td></tr><tr><td>Body Weight</td><td>85.5 kg</td><td>84.4 kg</td></tr><tr><td>Body mass index (BMI) [Ratio]</td><td>30.3 kg/m2</td><td>29.9 kg/m2</td></tr><tr><td>Diastolic Blood Pressure</td><td>92 mm[Hg]</td><td>88 mm[Hg]</td></tr><tr><td>Systolic Blood Pressure</td><td>113 mm[Hg]</td><td>121 mm[Hg]</td></tr><tr><td>Heart rate</td><td>90 /min</td><td>96 /min</td></tr><tr><td>Respiratory rate</td><td>14 /min</td><td>15 /min</td></tr></table></div>"
            },
            "entry": [
              {
                "reference": "urn:uuid:46a8cedd-8e71-4b71-8ff7-6e8f0b5915e4"
              }
            ],
            "code": {
              "coding": [
                {
                  "system": "http://loinc.org",
                  "code": "8716-3",
                  "display": "Vital signs note"
                }
              ]
            },
            "title": "Vital Signs"
          },
          {
            "text": {
              "status": "generated",
              "div": "<div xmlns=\"http://www.w3.org/1999/xhtml\"><table class=\"hl7__ips\">$<tr><td>[#] Births total</td><td>1</td></tr></table></div>"
            },
            "code": {
              "coding": [
                {
                  "system": "http://loinc.org",
                  "code": "10162-6",
                  "display": "History of pregnancies Narrative"
                }
              ]
            },
            "title": "Pregnancy History"
          },
          {
            "text": {
              "status": "generated",
              "div": "<div xmlns=\"http://www.w3.org/1999/xhtml\"><table class=\"hl7__ips\"><table class=\"hl7__ips\"><thead><tr><th>Recent Lab Observations</th><th>30-OCT-2022</th><th>Reference&#xA0;Range</th><th>Unit</th></tr></thead><tbody><tr><td>Cholesterol [Mass/volume] in Serum or Plasma</td><td><strong>122.5 L</strong></td><td>125 - 200</td><td>mg/dL</td></tr><tr><td>Triglyceride [Mass/volume] in Serum or Plasma</td><td>125.3</td><td>35 - 150</td><td>mg/dL</td></tr><tr><td>Cholesterol in LDL [Mass/volume] in Serum or Plasma by Direct assay</td><td>42.0</td><td>0 - 130</td><td>mg/dL</td></tr><tr><td>Cholesterol in HDL [Mass/volume] in Serum or Plasma</td><td>55.5</td><td>45 - 95</td><td>mg/dL</td></tr></tbody></table></table></div>"
            },
            "title": "Relevant diagnostic tests/laboratory data",
            "code": {
              "coding": [
                {
                  "code": "30954-2",
                  "system": "http://loinc.org",
                  "display": "Relevant diagnostic tests/laboratory data note"
                }
              ]
            }
          },
          {
            "text": {
              "status": "generated",
              "div": "<div xmlns=\"http://www.w3.org/1999/xhtml\"><table class=\"hl7__ips\"><tr><th>Device</th><th>Date (since)</th></tr><tr><td>Walker (physical object)</td><td><span class=\"nb\">21-Jan-2020</span></td></tr><tr><td>Home nebulizer (physical object)</td><td><span class=\"nb\">29-Jan-2002</span></td></tr></table></div>"
            },
            "entry": [
              {
                "reference": "urn:uuid:82851773-8257-4aea-bd64-ea2fa18fe562"
              }
            ],
            "code": {
              "coding": [
                {
                  "system": "http://loinc.org",
                  "code": "46264-8",
                  "display": "History of medical device use"
                }
              ]
            },
            "title": "Device Use"
          }
        ],
        "title": "European Patient Summary",
        "status": "final",
        "subject": {
          "reference": "urn:uuid:4e6bfcf4-42f1-416b-994d-26f1ac0c0677",
          "display": "Lily van &#039;t Houteveen"
        },
        "custodian": {
          "reference": "urn:uuid:87ed10a6-0891-46b6-8b7b-a3c3002eafe2"
        },
        "date": "2022-10-30",
        "confidentiality": "N"
      }
    },
    {
      "fullUrl": "urn:uuid:4e6bfcf4-42f1-416b-994d-26f1ac0c0677",
      "resource": {
        "resourceType": "Patient",
        "id": "4e6bfcf4-42f1-416b-994d-26f1ac0c0677",
        "meta": {
          "security": [
            {
              "system": "http://terminology.hl7.org/CodeSystem/v3-ActReason",
              "code": "HTEST"
            },
            {
              "system": "http://terminology.hl7.org/CodeSystem/v3-ActReason",
              "code": "TRAIN"
            }
          ],
          "tag": [
            {
              "system": "https://synderai.net/fhir/CodeSystem/tags",
              "code": "synthetic",
              "display": "SYNDERAI Synthetic data"
            }
          ],
          "profile": [
            "http://hl7.eu/fhir/eps/StructureDefinition/patient-eu-eps"
          ]
        },
        "identifier": [
          {
            "type": {
              "coding": [
                {
                  "code": "PT",
                  "system": "http://terminology.hl7.org/CodeSystem/v2-0203"
                }
              ]
            },
            "system": "http://ec.europa.eu/identifier/eci",
            "value": "8559-816880-6"
          },
          {
            "type": {
              "coding": [
                {
                  "code": "MR",
                  "system": "http://terminology.hl7.org/CodeSystem/v2-0203"
                }
              ]
            },
            "system": "http://local.setting.eu/identifier",
            "value": "bcedb829-513e-0284-957a-2468ff516349"
          }
        ],
        "name": [
          {
            "given": [
              "Lily"
            ],
            "family": "van &#039;t Houteveen",
            "text": "Lily van &#039;t Houteveen"
          }
        ],
        "address": [
          {
            "line": [
              "Evidreef 275"
            ],
            "use": "home",
            "type": "physical",
            "postalCode": "4388",
            "city": "Oost-Souburg",
            "country": "Netherlands"
          }
        ],
        "telecom": [
          {
            "system": "phone",
            "value": "+31(0)374 127288"
          }
        ],
        "extension": [
          {
            "url": "http://hl7.org/fhir/StructureDefinition/patient-nationality",
            "valueCodeableConcept": {
              "coding": [
                {
                  "code": "NL",
                  "system": "http://hl7.org/fhir/ValueSet/country"
                }
              ]
            }
          }
        ],
        "text": {
          "status": "generated",
          "div": "<div xmlns=\"http://www.w3.org/1999/xhtml\"><table class=\"hl7__ips\"><tr><td>Lily van 't Houteveen</td><td>female</td><td>07-Feb-1978</td></tr></table></div>"
        },
        "gender": "female",
        "birthDate": "1978-02-07"
      }
    },
    {
      "fullUrl": "urn:uuid:85d7a127-6afc-4156-b3da-574235d429d0",
      "resource": {
        "resourceType": "PractitionerRole",
        "id": "85d7a127-6afc-4156-b3da-574235d429d0",
        "meta": {
          "profile": [
            "http://hl7.eu/fhir/base/StructureDefinition/practitionerRole-eu"
          ]
        },
        "text": {
          "status": "generated",
          "div": "<div xmlns=\"http://www.w3.org/1999/xhtml\"><table class=\"hl7__ips\">Provider Role Id 85d7a127-6afc-4156-b3da-574235d429d0</table></div>"
        },
        "practitioner": {
          "reference": "urn:uuid:b1f77d95-ce1f-422e-a588-2ec17ae9ee87"
        },
        "organization": {
          "reference": "urn:uuid:87ed10a6-0891-46b6-8b7b-a3c3002eafe2"
        }
      }
    },
    {
      "fullUrl": "urn:uuid:87ed10a6-0891-46b6-8b7b-a3c3002eafe2",
      "resource": {
        "resourceType": "Organization",
        "id": "87ed10a6-0891-46b6-8b7b-a3c3002eafe2",
        "meta": {
          "profile": [
            "http://hl7.eu/fhir/base/StructureDefinition/organization-eu"
          ]
        },
        "identifier": [
          {
            "assigner": {
              "display": "HL7 Europe"
            },
            "system": "urn:oid:2.16.840.1.113883.2.51.999",
            "value": "2dd2e18e-5aa8-48b8-aba0-1474f9dfc387"
          }
        ],
        "address": [
          {
            "country": "Netherlands"
          }
        ],
        "text": {
          "status": "generated",
          "div": "<div xmlns=\"http://www.w3.org/1999/xhtml\"><table class=\"hl7__ips\">ADRZ</table></div>"
        },
        "name": "ADRZ"
      }
    },
    {
      "fullUrl": "urn:uuid:b1f77d95-ce1f-422e-a588-2ec17ae9ee87",
      "resource": {
        "resourceType": "Practitioner",
        "id": "b1f77d95-ce1f-422e-a588-2ec17ae9ee87",
        "meta": {
          "profile": [
            "http://hl7.eu/fhir/base/StructureDefinition/practitioner-eu"
          ]
        },
        "name": [
          {
            "prefix": [
              "Dr."
            ],
            "given": [
              "Hel"
            ],
            "family": "Ping"
          }
        ],
        "text": {
          "status": "generated",
          "div": "<div xmlns=\"http://www.w3.org/1999/xhtml\"><table class=\"hl7__ips\">Dr. Hel Ping</table></div>"
        }
      }
    },
    {
      "fullUrl": "urn:uuid:b4ceb5d5-a33a-4c0a-89c1-3216dee13693",
      "resource": {
        "resourceType": "Condition",
        "id": "b4ceb5d5-a33a-4c0a-89c1-3216dee13693",
        "meta": {
          "profile": [
            "http://hl7.org/fhir/uv/ips/StructureDefinition/Condition-uv-ips"
          ]
        },
        "category": [
          {
            "coding": [
              {
                "code": "problem-list-item",
                "system": "http://terminology.hl7.org/CodeSystem/condition-category",
                "display": "Problem List Item"
              }
            ]
          }
        ],
        "code": {
          "coding": [
            {
              "code": "239873007",
              "system": "http://snomed.info/sct",
              "display": "Osteoarthritis of knee (disorder)"
            }
          ],
          "text": "Osteoarthritis of knee"
        },
        "text": {
          "status": "generated",
          "div": "<div xmlns=\"http://www.w3.org/1999/xhtml\"><table class=\"hl7__ips\"><tr><td>Osteoarthritis of knee</td><td><span class=\"nb\">21-Jan-2020</span></td><td>active</td></tr></table></div>"
        },
        "onsetDateTime": "2020-01-21",
        "subject": {
          "reference": "urn:uuid:4e6bfcf4-42f1-416b-994d-26f1ac0c0677",
          "display": "Lily van &#039;t Houteveen"
        },
        "asserter": {
          "reference": "urn:uuid:85d7a127-6afc-4156-b3da-574235d429d0",
          "display": "ADRZ"
        }
      }
    },
    {
      "fullUrl": "urn:uuid:6b41dc68-4cb9-4c8a-ba1f-f59064912885",
      "resource": {
        "resourceType": "Condition",
        "id": "6b41dc68-4cb9-4c8a-ba1f-f59064912885",
        "meta": {
          "profile": [
            "http://hl7.org/fhir/uv/ips/StructureDefinition/Condition-uv-ips"
          ]
        },
        "category": [
          {
            "coding": [
              {
                "code": "problem-list-item",
                "system": "http://terminology.hl7.org/CodeSystem/condition-category",
                "display": "Problem List Item"
              }
            ]
          }
        ],
        "code": {
          "coding": [
            {
              "code": "203082005",
              "system": "http://snomed.info/sct",
              "display": "Fibromyalgia (disorder)"
            }
          ],
          "text": "Fibromyalgia"
        },
        "text": {
          "status": "generated",
          "div": "<div xmlns=\"http://www.w3.org/1999/xhtml\"><table class=\"hl7__ips\"><tr><td>Fibromyalgia</td><td><span class=\"nb\">04-Feb-2014</span></td><td>active</td></tr></table></div>"
        },
        "onsetDateTime": "2014-02-04",
        "subject": {
          "reference": "urn:uuid:4e6bfcf4-42f1-416b-994d-26f1ac0c0677",
          "display": "Lily van &#039;t Houteveen"
        },
        "asserter": {
          "reference": "urn:uuid:85d7a127-6afc-4156-b3da-574235d429d0",
          "display": "ADRZ"
        }
      }
    },
    {
      "fullUrl": "urn:uuid:129eb868-226b-4560-bb8e-a5eaf0ea68f4",
      "resource": {
        "resourceType": "Condition",
        "id": "129eb868-226b-4560-bb8e-a5eaf0ea68f4",
        "meta": {
          "profile": [
            "http://hl7.org/fhir/uv/ips/StructureDefinition/Condition-uv-ips"
          ]
        },
        "category": [
          {
            "coding": [
              {
                "code": "problem-list-item",
                "system": "http://terminology.hl7.org/CodeSystem/condition-category",
                "display": "Problem List Item"
              }
            ]
          }
        ],
        "code": {
          "coding": [
            {
              "code": "40055000",
              "system": "http://snomed.info/sct",
              "display": "Chronic sinusitis (disorder)"
            }
          ],
          "text": "Chronic sinusitis"
        },
        "text": {
          "status": "generated",
          "div": "<div xmlns=\"http://www.w3.org/1999/xhtml\"><table class=\"hl7__ips\"><tr><td>Chronic sinusitis</td><td><span class=\"nb\">29-Jan-2002</span></td><td>active</td></tr></table></div>"
        },
        "onsetDateTime": "2002-01-29",
        "subject": {
          "reference": "urn:uuid:4e6bfcf4-42f1-416b-994d-26f1ac0c0677",
          "display": "Lily van &#039;t Houteveen"
        },
        "asserter": {
          "reference": "urn:uuid:85d7a127-6afc-4156-b3da-574235d429d0",
          "display": "ADRZ"
        }
      }
    },
    {
      "fullUrl": "urn:uuid:0466fab5-a881-4c54-85f1-c7c2276973b5",
      "resource": {
        "resourceType": "Condition",
        "id": "0466fab5-a881-4c54-85f1-c7c2276973b5",
        "meta": {
          "profile": [
            "http://hl7.org/fhir/uv/ips/StructureDefinition/Condition-uv-ips"
          ]
        },
        "category": [
          {
            "coding": [
              {
                "code": "problem-list-item",
                "system": "http://terminology.hl7.org/CodeSystem/condition-category",
                "display": "Problem List Item"
              }
            ]
          }
        ],
        "code": {
          "coding": [
            {
              "code": "195662009",
              "system": "http://snomed.info/sct",
              "display": "Acute viral pharyngitis (disorder)"
            }
          ],
          "text": "Acute viral pharyngitis"
        },
        "text": {
          "status": "generated",
          "div": "<div xmlns=\"http://www.w3.org/1999/xhtml\"><table class=\"hl7__ips\"><tr><td><span class=\"grayedout\">Acute viral pharyngitis</span></td><td><span class=\"nb\">20-Apr-2022 - 27-Apr-2022</span></td><td><span class=\"grayedout\">inactive</span></td></tr></table></div>"
        },
        "onsetDateTime": "2022-04-20",
        "abatementDateTime": "2022-04-27",
        "subject": {
          "reference": "urn:uuid:4e6bfcf4-42f1-416b-994d-26f1ac0c0677",
          "display": "Lily van &#039;t Houteveen"
        },
        "asserter": {
          "reference": "urn:uuid:85d7a127-6afc-4156-b3da-574235d429d0",
          "display": "ADRZ"
        }
      }
    },
    {
      "fullUrl": "urn:uuid:84ef301f-8d44-4e0d-a7be-0e5f9d871db5",
      "resource": {
        "resourceType": "Condition",
        "id": "84ef301f-8d44-4e0d-a7be-0e5f9d871db5",
        "meta": {
          "profile": [
            "http://hl7.org/fhir/uv/ips/StructureDefinition/Condition-uv-ips"
          ]
        },
        "category": [
          {
            "coding": [
              {
                "code": "problem-list-item",
                "system": "http://terminology.hl7.org/CodeSystem/condition-category",
                "display": "Problem List Item"
              }
            ]
          }
        ],
        "code": {
          "coding": [
            {
              "code": "444814009",
              "system": "http://snomed.info/sct",
              "display": "Viral sinusitis (disorder)"
            }
          ],
          "text": "Viral sinusitis"
        },
        "text": {
          "status": "generated",
          "div": "<div xmlns=\"http://www.w3.org/1999/xhtml\"><table class=\"hl7__ips\"><tr><td><span class=\"grayedout\">Viral sinusitis</span></td><td><span class=\"nb\">21-Feb-2020 - 16-Mar-2020</span></td><td><span class=\"grayedout\">inactive</span></td></tr></table></div>"
        },
        "onsetDateTime": "2020-02-21",
        "abatementDateTime": "2020-03-16",
        "subject": {
          "reference": "urn:uuid:4e6bfcf4-42f1-416b-994d-26f1ac0c0677",
          "display": "Lily van &#039;t Houteveen"
        },
        "asserter": {
          "reference": "urn:uuid:85d7a127-6afc-4156-b3da-574235d429d0",
          "display": "ADRZ"
        }
      }
    },
    {
      "fullUrl": "urn:uuid:466dc3e8-12b1-44f1-ae77-445df2b585b4",
      "resource": {
        "resourceType": "Condition",
        "id": "466dc3e8-12b1-44f1-ae77-445df2b585b4",
        "meta": {
          "profile": [
            "http://hl7.org/fhir/uv/ips/StructureDefinition/Condition-uv-ips"
          ]
        },
        "category": [
          {
            "coding": [
              {
                "code": "problem-list-item",
                "system": "http://terminology.hl7.org/CodeSystem/condition-category",
                "display": "Problem List Item"
              }
            ]
          }
        ],
        "code": {
          "coding": [
            {
              "code": "19169002",
              "system": "http://snomed.info/sct",
              "display": "Miscarriage in first trimester (disorder)"
            }
          ],
          "text": "Miscarriage in first trimester"
        },
        "text": {
          "status": "generated",
          "div": "<div xmlns=\"http://www.w3.org/1999/xhtml\"><table class=\"hl7__ips\"><tr><td><span class=\"grayedout\">Miscarriage in first trimester</span></td><td><span class=\"nb\">09-Jun-2019 - 24-Jun-2019</span></td><td><span class=\"grayedout\">inactive</span></td></tr></table></div>"
        },
        "onsetDateTime": "2019-06-09",
        "abatementDateTime": "2019-06-24",
        "subject": {
          "reference": "urn:uuid:4e6bfcf4-42f1-416b-994d-26f1ac0c0677",
          "display": "Lily van &#039;t Houteveen"
        },
        "asserter": {
          "reference": "urn:uuid:85d7a127-6afc-4156-b3da-574235d429d0",
          "display": "ADRZ"
        }
      }
    },
    {
      "fullUrl": "urn:uuid:a41c03f3-9366-45b7-bcc2-7f54edcd2989",
      "resource": {
        "resourceType": "Condition",
        "id": "a41c03f3-9366-45b7-bcc2-7f54edcd2989",
        "meta": {
          "profile": [
            "http://hl7.org/fhir/uv/ips/StructureDefinition/Condition-uv-ips"
          ]
        },
        "category": [
          {
            "coding": [
              {
                "code": "problem-list-item",
                "system": "http://terminology.hl7.org/CodeSystem/condition-category",
                "display": "Problem List Item"
              }
            ]
          }
        ],
        "code": {
          "coding": [
            {
              "code": "156073000",
              "system": "http://snomed.info/sct",
              "display": "Complete miscarriage (disorder)"
            }
          ],
          "text": "Complete miscarriage"
        },
        "text": {
          "status": "generated",
          "div": "<div xmlns=\"http://www.w3.org/1999/xhtml\"><table class=\"hl7__ips\"><tr><td><span class=\"grayedout\">Complete miscarriage</span></td><td><span class=\"nb\">09-Jun-2019 - 24-Jun-2019</span></td><td><span class=\"grayedout\">inactive</span></td></tr></table></div>"
        },
        "onsetDateTime": "2019-06-09",
        "abatementDateTime": "2019-06-24",
        "subject": {
          "reference": "urn:uuid:4e6bfcf4-42f1-416b-994d-26f1ac0c0677",
          "display": "Lily van &#039;t Houteveen"
        },
        "asserter": {
          "reference": "urn:uuid:85d7a127-6afc-4156-b3da-574235d429d0",
          "display": "ADRZ"
        }
      }
    },
    {
      "fullUrl": "urn:uuid:b4f5357d-126e-43c1-9b96-be41d1cd3173",
      "resource": {
        "resourceType": "MedicationStatement",
        "id": "b4f5357d-126e-43c1-9b96-be41d1cd3173",
        "meta": {
          "profile": [
            "http://hl7.eu/fhir/eps/StructureDefinition/MedicationStatement-eu-eps"
          ]
        },
        "effectivePeriod": {
          "extension": [
            {
              "url": "http://hl7.org/fhir/StructureDefinition/data-absent-reason",
              "valueCode": "unknown"
            }
          ]
        },
        "status": "active",
        "medicationCodeableConcept": {
          "coding": [
            {
              "code": "787481004",
              "system": "http://snomed.info/sct",
              "display": "No known medications (situation)"
            }
          ]
        },
        "subject": {
          "reference": "urn:uuid:4e6bfcf4-42f1-416b-994d-26f1ac0c0677",
          "display": "Lily van &#039;t Houteveen"
        }
      }
    },
    {
      "fullUrl": "urn:uuid:d0d756e6-f23e-4a8d-952a-84f84f1fc8bb",
      "resource": {
        "resourceType": "Immunization",
        "id": "d0d756e6-f23e-4a8d-952a-84f84f1fc8bb",
        "meta": {
          "profile": [
            "http://hl7.org/fhir/uv/ips/StructureDefinition/Immunization-uv-ips"
          ]
        },
        "vaccineCode": {
          "coding": [
            {
              "code": "1181000221105",
              "system": "http://snomed.info/sct",
              "display": "Vaccine product containing Influenza virus antigen"
            },
            {
              "code": "J07BB02",
              "system": "http://www.whocc.no/atc",
              "display": "Influenza, inactivated, split virus"
            }
          ],
          "text": "Influenza virus antigen only vaccine product"
        },
        "site": {
          "coding": [
            {
              "code": "244979005",
              "system": "http://snomed.info/sct",
              "display": "Entire muscle of upper arm"
            }
          ],
          "text": "Entire muscle of upper arm"
        },
        "route": {
          "coding": [
            {
              "code": "78421000",
              "system": "http://snomed.info/sct",
              "display": "Intramuscular route"
            }
          ],
          "text": "Intramuscular route"
        },
        "text": {
          "status": "generated",
          "div": "<div xmlns=\"http://www.w3.org/1999/xhtml\"><table class=\"hl7__ips\"><tr><td>Influenza virus antigen only vaccine product</td><td><span class=\"nb\">10-Nov-2024</span></td></tr></table></div>"
        },
        "status": "completed",
        "patient": {
          "reference": "urn:uuid:4e6bfcf4-42f1-416b-994d-26f1ac0c0677",
          "display": "Lily van &#039;t Houteveen"
        },
        "occurrenceDateTime": "2024-11-10",
        "lotNumber": "UA-D3WWeK76a",
        "expirationDate": "2025-07-26"
      }
    },
    {
      "fullUrl": "urn:uuid:b2167f4a-0ee5-4170-8a94-6372787cc469",
      "resource": {
        "resourceType": "Immunization",
        "id": "b2167f4a-0ee5-4170-8a94-6372787cc469",
        "meta": {
          "profile": [
            "http://hl7.org/fhir/uv/ips/StructureDefinition/Immunization-uv-ips"
          ]
        },
        "vaccineCode": {
          "coding": [
            {
              "code": "1119349007",
              "system": "http://snomed.info/sct",
              "display": "Vaccine product containing SARS-CoV-2 mRNA"
            },
            {
              "code": "J07BX03",
              "system": "http://www.whocc.no/atc",
              "display": "COVID-19 mRNA vaccines"
            }
          ],
          "text": "SARS-CoV-2 mRNA vaccine"
        },
        "site": {
          "coding": [
            {
              "code": "244979005",
              "system": "http://snomed.info/sct",
              "display": "Entire muscle of upper arm"
            }
          ],
          "text": "Entire muscle of upper arm"
        },
        "route": {
          "coding": [
            {
              "code": "78421000",
              "system": "http://snomed.info/sct",
              "display": "Intramuscular route"
            }
          ],
          "text": "Intramuscular route"
        },
        "text": {
          "status": "generated",
          "div": "<div xmlns=\"http://www.w3.org/1999/xhtml\"><table class=\"hl7__ips\"><tr><td>SARS-CoV-2 mRNA vaccine</td><td><span class=\"nb\">28-Mar-2021</span></td></tr></table></div>"
        },
        "status": "completed",
        "patient": {
          "reference": "urn:uuid:4e6bfcf4-42f1-416b-994d-26f1ac0c0677",
          "display": "Lily van &#039;t Houteveen"
        },
        "occurrenceDateTime": "2021-03-28",
        "lotNumber": "DV-n7q4UuSnh",
        "expirationDate": "2022-01-29"
      }
    },
    {
      "fullUrl": "urn:uuid:d82ca099-f151-42ac-bfc4-aa905967e50a",
      "resource": {
        "resourceType": "Immunization",
        "id": "d82ca099-f151-42ac-bfc4-aa905967e50a",
        "meta": {
          "profile": [
            "http://hl7.org/fhir/uv/ips/StructureDefinition/Immunization-uv-ips"
          ]
        },
        "vaccineCode": {
          "coding": [
            {
              "code": "871751006",
              "system": "http://snomed.info/sct",
              "display": "Vaccine product containing Hepatitis A virus antigen"
            },
            {
              "code": "J07BC02",
              "system": "http://www.whocc.no/atc",
              "display": "Hepatitis A vaccines"
            }
          ],
          "text": "Hepatitis A virus antigen only vaccine product"
        },
        "site": {
          "coding": [
            {
              "code": "244979005",
              "system": "http://snomed.info/sct",
              "display": "Entire muscle of upper arm"
            }
          ],
          "text": "Entire muscle of upper arm"
        },
        "route": {
          "coding": [
            {
              "code": "78421000",
              "system": "http://snomed.info/sct",
              "display": "Intramuscular route"
            }
          ],
          "text": "Intramuscular route"
        },
        "text": {
          "status": "generated",
          "div": "<div xmlns=\"http://www.w3.org/1999/xhtml\"><table class=\"hl7__ips\"><tr><td>Hepatitis A virus antigen only vaccine product</td><td><span class=\"nb\">01-Oct-2017</span></td></tr></table></div>"
        },
        "status": "completed",
        "patient": {
          "reference": "urn:uuid:4e6bfcf4-42f1-416b-994d-26f1ac0c0677",
          "display": "Lily van &#039;t Houteveen"
        },
        "occurrenceDateTime": "2017-10-01",
        "lotNumber": "TZ-nuAqM",
        "expirationDate": "2017-11-14"
      }
    },
    {
      "fullUrl": "urn:uuid:525e79ad-d97d-4de9-8e82-15d83ec28db2",
      "resource": {
        "resourceType": "Immunization",
        "id": "525e79ad-d97d-4de9-8e82-15d83ec28db2",
        "meta": {
          "profile": [
            "http://hl7.org/fhir/uv/ips/StructureDefinition/Immunization-uv-ips"
          ]
        },
        "vaccineCode": {
          "coding": [
            {
              "code": "777725002",
              "system": "http://snomed.info/sct",
              "display": "Vaccine product containing only Clostridium tetani toxoid antigen adsorbed"
            },
            {
              "code": "J07AM51",
              "system": "http://www.whocc.no/atc",
              "display": "Diphtheria-tetanus vaccines, adult type"
            }
          ],
          "text": "Clostridium tetani toxoid antigen adsorbed only vaccine product"
        },
        "site": {
          "coding": [
            {
              "code": "244979005",
              "system": "http://snomed.info/sct",
              "display": "Entire muscle of upper arm"
            }
          ],
          "text": "Entire muscle of upper arm"
        },
        "route": {
          "coding": [
            {
              "code": "78421000",
              "system": "http://snomed.info/sct",
              "display": "Intramuscular route"
            }
          ],
          "text": "Intramuscular route"
        },
        "text": {
          "status": "generated",
          "div": "<div xmlns=\"http://www.w3.org/1999/xhtml\"><table class=\"hl7__ips\"><tr><td>Clostridium tetani toxoid antigen adsorbed only vaccine product</td><td><span class=\"nb\">01-Oct-2017</span></td></tr></table></div>"
        },
        "status": "completed",
        "patient": {
          "reference": "urn:uuid:4e6bfcf4-42f1-416b-994d-26f1ac0c0677",
          "display": "Lily van &#039;t Houteveen"
        },
        "occurrenceDateTime": "2017-10-01",
        "lotNumber": "ZK-MyeFgs",
        "expirationDate": "2018-02-18"
      }
    },
    {
      "fullUrl": "urn:uuid:eb50e1a1-3ef4-4bc1-9a77-2a4ea6f5304c",
      "resource": {
        "resourceType": "Procedure",
        "id": "eb50e1a1-3ef4-4bc1-9a77-2a4ea6f5304c",
        "meta": {
          "profile": [
            "http://hl7.org/fhir/uv/ips/StructureDefinition/Procedure-uv-ips"
          ]
        },
        "code": {
          "coding": [
            {
              "code": "18946005",
              "system": "http://snomed.info/sct",
              "display": "Epidural anesthesia"
            }
          ],
          "text": "Epidural anesthesia"
        },
        "reasonCode": [
          {
            "coding": [
              {
                "code": "72892002",
                "system": "http://snomed.info/sct",
                "display": "Normal pregnancy"
              }
            ]
          }
        ],
        "text": {
          "status": "generated",
          "div": "<div xmlns=\"http://www.w3.org/1999/xhtml\"><table class=\"hl7__ips\"><tr><td>Epidural anesthesia</td><td><span class=\"nb\">27-Jan-2019</span></td><td>Normal pregnancy</td></tr></table></div>"
        },
        "status": "completed",
        "performedDateTime": "2019-01-27",
        "subject": {
          "reference": "urn:uuid:4e6bfcf4-42f1-416b-994d-26f1ac0c0677",
          "display": "Lily van &#039;t Houteveen"
        }
      }
    },
    {
      "fullUrl": "urn:uuid:267550aa-5343-43b7-985a-8910654577de",
      "resource": {
        "resourceType": "Procedure",
        "id": "267550aa-5343-43b7-985a-8910654577de",
        "meta": {
          "profile": [
            "http://hl7.org/fhir/uv/ips/StructureDefinition/Procedure-uv-ips"
          ]
        },
        "code": {
          "coding": [
            {
              "code": "66348005",
              "system": "http://snomed.info/sct",
              "display": "Childbirth"
            }
          ],
          "text": "Parturition"
        },
        "reasonCode": [
          {
            "coding": [
              {
                "code": "72892002",
                "system": "http://snomed.info/sct",
                "display": "Normal pregnancy"
              }
            ]
          }
        ],
        "text": {
          "status": "generated",
          "div": "<div xmlns=\"http://www.w3.org/1999/xhtml\"><table class=\"hl7__ips\"><tr><td>Parturition</td><td><span class=\"nb\">27-Jan-2019</span></td><td>Normal pregnancy</td></tr></table></div>"
        },
        "status": "completed",
        "performedDateTime": "2019-01-27",
        "subject": {
          "reference": "urn:uuid:4e6bfcf4-42f1-416b-994d-26f1ac0c0677",
          "display": "Lily van &#039;t Houteveen"
        }
      }
    },
    {
      "fullUrl": "urn:uuid:d60580bd-c956-4b7c-9305-940df95ac4e7",
      "resource": {
        "resourceType": "AllergyIntolerance",
        "id": "d60580bd-c956-4b7c-9305-940df95ac4e7",
        "meta": {
          "profile": [
            "http://hl7.eu/fhir/base/StructureDefinition/allergyIntolerance-eu-core"
          ]
        },
        "code": {
          "coding": [
            {
              "code": "419199007",
              "system": "http://snomed.info/sct",
              "display": "Allergy to substance (finding)"
            }
          ],
          "text": "Allergy to substance"
        },
        "clinicalStatus": {
          "coding": [
            {
              "code": "active",
              "system": "http://terminology.hl7.org/CodeSystem/allergyintolerance-clinical"
            }
          ]
        },
        "category": [
          "environment"
        ],
        "text": {
          "status": "generated",
          "div": "<div xmlns=\"http://www.w3.org/1999/xhtml\"><table class=\"hl7__ips\"><tr><th>Allergy/Intolerance</th><th>Onset Date</th><th>Status</th><th>Type</th><th>Reaction</th></tr><tr><td>Allergy to substance</td><td><span class=\"nb\">1977-08-09</span></td><td>active</td><td>environment</td><td></td></tr></table></div>"
        },
        "onsetDateTime": "1977-08-09",
        "verificationStatus": {
          "coding": [
            {
              "code": "confirmed",
              "system": "http://terminology.hl7.org/CodeSystem/allergyintolerance-verification"
            }
          ]
        },
        "type": "allergy",
        "patient": {
          "reference": "urn:uuid:4e6bfcf4-42f1-416b-994d-26f1ac0c0677",
          "display": "Lily van &#039;t Houteveen"
        }
      }
    },
    {
      "fullUrl": "urn:uuid:c417538e-c6ad-474a-96c7-5a807ee2204e",
      "resource": {
        "resourceType": "AllergyIntolerance",
        "id": "c417538e-c6ad-474a-96c7-5a807ee2204e",
        "meta": {
          "profile": [
            "http://hl7.eu/fhir/base/StructureDefinition/allergyIntolerance-eu-core"
          ]
        },
        "code": {
          "coding": [
            {
              "code": "735029006",
              "system": "http://snomed.info/sct",
              "display": "Shellfish (substance)"
            }
          ],
          "text": "Shellfish"
        },
        "clinicalStatus": {
          "coding": [
            {
              "code": "active",
              "system": "http://terminology.hl7.org/CodeSystem/allergyintolerance-clinical"
            }
          ]
        },
        "category": [
          "food"
        ],
        "reaction": [
          {
            "manifestation": [
              {
                "coding": [
                  {
                    "code": "39579001",
                    "system": "http://snomed.info/sct",
                    "display": "Anaphylaxis (disorder)"
                  }
                ]
              }
            ],
            "severity": "severe"
          },
          {
            "manifestation": [
              {
                "coding": [
                  {
                    "code": "271807003",
                    "system": "http://snomed.info/sct",
                    "display": "Eruption of skin (disorder)"
                  }
                ]
              }
            ],
            "severity": "moderate"
          }
        ],
        "text": {
          "status": "generated",
          "div": "<div xmlns=\"http://www.w3.org/1999/xhtml\"><table class=\"hl7__ips\"><tr><th>Allergy/Intolerance</th><th>Onset Date</th><th>Status</th><th>Type</th><th>Reaction</th></tr><tr><td>Shellfish</td><td><span class=\"nb\">1977-08-09</span></td><td>active</td><td>food</td><td>Anaphylaxis (disorder)&lt;br> &lt;/br>Eruption of skin (disorder)</td></tr></table></div>"
        },
        "onsetDateTime": "1977-08-09",
        "verificationStatus": {
          "coding": [
            {
              "code": "confirmed",
              "system": "http://terminology.hl7.org/CodeSystem/allergyintolerance-verification"
            }
          ]
        },
        "type": "allergy",
        "patient": {
          "reference": "urn:uuid:4e6bfcf4-42f1-416b-994d-26f1ac0c0677",
          "display": "Lily van &#039;t Houteveen"
        }
      }
    },
    {
      "fullUrl": "urn:uuid:38cc86e4-e384-4627-8b21-5da894d0a41d",
      "resource": {
        "resourceType": "CarePlan",
        "id": "38cc86e4-e384-4627-8b21-5da894d0a41d",
        "category": [
          {
            "coding": [
              {
                "code": "assess-plan",
                "system": "http://terminology.hl7.org/CodeSystem/care-plan-category",
                "display": "Assessment and Plan"
              }
            ]
          }
        ],
        "activity": [
          {
            "detail": {
              "code": {
                "coding": [
                  {
                    "code": "408869004",
                    "system": "http://snomed.info/sct",
                    "display": "Musculoskeletal care (regime/therapy)"
                  }
                ]
              },
              "reasonCode": [
                {
                  "coding": [
                    {
                      "code": "239873007",
                      "system": "http://snomed.info/sct",
                      "display": "Osteoarthritis of knee"
                    }
                  ]
                }
              ],
              "status": "unknown",
              "description": "Musculoskeletal care",
              "kind": "Appointment"
            }
          }
        ],
        "period": {
          "start": "2020-01-21"
        },
        "goal": [
          {
            "reference": "urn:uuid:68636948-f2d5-44f7-a8a7-b9a6ad00e7aa"
          },
          {
            "reference": "urn:uuid:481dd5f0-d70b-4674-b215-7ca13e5d8a2d"
          },
          {
            "reference": "urn:uuid:d93b4747-bcd0-4641-b9ad-6d35c5cb58fc"
          }
        ],
        "text": {
          "status": "generated",
          "div": "<div xmlns=\"http://www.w3.org/1999/xhtml\"><table class=\"hl7__ips first25\"><tr><th>Active Planned Care / Goals</th><th>Start Date</th><th>Reason</th></tr><tr><td>Musculoskeletal care</td><td><span class=\"nb\">21-Jan-2020</span></td><td>Osteoarthritis of knee</td></tr><tr><td><ul><li>Reduce knee pain severity to a tolerable level to improve function and quality of life.</li><li>Increase ability to perform daily activities such as walking and climbing stairs.</li><li>Complete prescribed knee strengthening and flexibility exercises as recommended.</li></ul></td><td></td><td></td></tr></table></div>"
        },
        "status": "active",
        "intent": "plan",
        "subject": {
          "reference": "urn:uuid:4e6bfcf4-42f1-416b-994d-26f1ac0c0677",
          "display": "Lily van &#039;t Houteveen"
        }
      }
    },
    {
      "fullUrl": "urn:uuid:d3801f47-fb06-4c61-a031-7aacf514446f",
      "resource": {
        "resourceType": "CarePlan",
        "id": "d3801f47-fb06-4c61-a031-7aacf514446f",
        "category": [
          {
            "coding": [
              {
                "code": "assess-plan",
                "system": "http://terminology.hl7.org/CodeSystem/care-plan-category",
                "display": "Assessment and Plan"
              }
            ]
          }
        ],
        "activity": [
          {
            "detail": {
              "code": {
                "coding": [
                  {
                    "code": "384758001",
                    "system": "http://snomed.info/sct",
                    "display": "Self-care interventions (procedure)"
                  }
                ]
              },
              "status": "unknown",
              "description": "Self-care interventions",
              "kind": "Appointment"
            }
          }
        ],
        "period": {
          "start": "1977-07-24"
        },
        "text": {
          "status": "generated",
          "div": "<div xmlns=\"http://www.w3.org/1999/xhtml\"><table class=\"hl7__ips first25\"><tr><th>Active Planned Care / Goals</th><th>Start Date</th><th>Reason</th></tr><tr><td>Self-care interventions</td><td><span class=\"nb\">24-Jul-1977</span></td><td>-</td></tr></table></div>"
        },
        "status": "active",
        "intent": "plan",
        "subject": {
          "reference": "urn:uuid:4e6bfcf4-42f1-416b-994d-26f1ac0c0677",
          "display": "Lily van &#039;t Houteveen"
        }
      }
    },
    {
      "fullUrl": "urn:uuid:46a8cedd-8e71-4b71-8ff7-6e8f0b5915e4",
      "resource": {
        "resourceType": "Observation",
        "id": "46a8cedd-8e71-4b71-8ff7-6e8f0b5915e4",
        "meta": {
          "profile": [
            "http://hl7.org/fhir/StructureDefinition/vitalsigns"
          ]
        },
        "category": [
          {
            "coding": [
              {
                "system": "http://terminology.hl7.org/CodeSystem/observation-category",
                "code": "vital-signs",
                "display": "Vital Signs"
              }
            ]
          }
        ],
        "valueQuantity": {
          "value": 168.1,
          "code": "cm",
          "unit": "cm"
        },
        "text": {
          "status": "generated",
          "div": "<div xmlns=\"http://www.w3.org/1999/xhtml\"><table class=\"hl7__ips\"><tr><th>Vital Sign</th><th>Date</th><th>Measurement</th></tr><tr><td>Body Height</td><td>10-Nov-2024</td><td>168.1 cm</td></tr></table></div>"
        },
        "status": "final",
        "code": {
          "coding": [
            {
              "code": "8302-2",
              "system": "http://loinc.org",
              "display": "Body Height"
            }
          ]
        },
        "subject": {
          "reference": "urn:uuid:4e6bfcf4-42f1-416b-994d-26f1ac0c0677",
          "display": "Lily van &#039;t Houteveen"
        },
        "effectiveDateTime": "2024-11-10"
      }
    },
    {
      "fullUrl": "urn:uuid:328c7df6-7f1e-4b20-aa6f-98dfa7e6581d",
      "resource": {
        "resourceType": "Observation",
        "id": "328c7df6-7f1e-4b20-aa6f-98dfa7e6581d",
        "meta": {
          "profile": [
            "http://hl7.org/fhir/StructureDefinition/vitalsigns"
          ]
        },
        "category": [
          {
            "coding": [
              {
                "system": "http://terminology.hl7.org/CodeSystem/observation-category",
                "code": "vital-signs",
                "display": "Vital Signs"
              }
            ]
          }
        ],
        "valueQuantity": {
          "value": 3,
          "code": "{score}",
          "unit": "{score}"
        },
        "text": {
          "status": "generated",
          "div": "<div xmlns=\"http://www.w3.org/1999/xhtml\"><table class=\"hl7__ips\"><tr><th>Vital Sign</th><th>Date</th><th>Measurement</th></tr><tr><td>Pain severity - 0-10 verbal numeric rating [Score] - Reported</td><td>10-Nov-2024</td><td>3 {score}</td></tr></table></div>"
        },
        "status": "final",
        "code": {
          "coding": [
            {
              "code": "72514-3",
              "system": "http://loinc.org",
              "display": "Pain severity - 0-10 verbal numeric rating [Score] - Reported"
            }
          ]
        },
        "subject": {
          "reference": "urn:uuid:4e6bfcf4-42f1-416b-994d-26f1ac0c0677",
          "display": "Lily van &#039;t Houteveen"
        },
        "effectiveDateTime": "2024-11-10"
      }
    },
    {
      "fullUrl": "urn:uuid:fc5881c9-cda9-4e49-a24d-8a4e647c254e",
      "resource": {
        "resourceType": "Observation",
        "id": "fc5881c9-cda9-4e49-a24d-8a4e647c254e",
        "meta": {
          "profile": [
            "http://hl7.org/fhir/StructureDefinition/vitalsigns"
          ]
        },
        "category": [
          {
            "coding": [
              {
                "system": "http://terminology.hl7.org/CodeSystem/observation-category",
                "code": "vital-signs",
                "display": "Vital Signs"
              }
            ]
          }
        ],
        "valueQuantity": {
          "value": 85.5,
          "code": "kg",
          "unit": "kg"
        },
        "text": {
          "status": "generated",
          "div": "<div xmlns=\"http://www.w3.org/1999/xhtml\"><table class=\"hl7__ips\"><tr><th>Vital Sign</th><th>Date</th><th>Measurement</th></tr><tr><td>Body Weight</td><td>10-Nov-2024</td><td>85.5 kg</td></tr></table></div>"
        },
        "status": "final",
        "code": {
          "coding": [
            {
              "code": "29463-7",
              "system": "http://loinc.org",
              "display": "Body Weight"
            }
          ]
        },
        "subject": {
          "reference": "urn:uuid:4e6bfcf4-42f1-416b-994d-26f1ac0c0677",
          "display": "Lily van &#039;t Houteveen"
        },
        "effectiveDateTime": "2024-11-10"
      }
    },
    {
      "fullUrl": "urn:uuid:8cd3529b-4a50-4293-a087-2c3bd7a7edb8",
      "resource": {
        "resourceType": "Observation",
        "id": "8cd3529b-4a50-4293-a087-2c3bd7a7edb8",
        "meta": {
          "profile": [
            "http://hl7.org/fhir/StructureDefinition/vitalsigns"
          ]
        },
        "category": [
          {
            "coding": [
              {
                "system": "http://terminology.hl7.org/CodeSystem/observation-category",
                "code": "vital-signs",
                "display": "Vital Signs"
              }
            ]
          }
        ],
        "valueQuantity": {
          "value": 30.3,
          "code": "kg/m2",
          "unit": "kg/m2"
        },
        "text": {
          "status": "generated",
          "div": "<div xmlns=\"http://www.w3.org/1999/xhtml\"><table class=\"hl7__ips\"><tr><th>Vital Sign</th><th>Date</th><th>Measurement</th></tr><tr><td>Body mass index (BMI) [Ratio]</td><td>10-Nov-2024</td><td>30.3 kg/m2</td></tr></table></div>"
        },
        "status": "final",
        "code": {
          "coding": [
            {
              "code": "39156-5",
              "system": "http://loinc.org",
              "display": "Body mass index (BMI) [Ratio]"
            }
          ]
        },
        "subject": {
          "reference": "urn:uuid:4e6bfcf4-42f1-416b-994d-26f1ac0c0677",
          "display": "Lily van &#039;t Houteveen"
        },
        "effectiveDateTime": "2024-11-10"
      }
    },
    {
      "fullUrl": "urn:uuid:024d8c5a-2d69-4656-a01f-e62bfdf13312",
      "resource": {
        "resourceType": "Observation",
        "id": "024d8c5a-2d69-4656-a01f-e62bfdf13312",
        "meta": {
          "profile": [
            "http://hl7.org/fhir/StructureDefinition/vitalsigns"
          ]
        },
        "category": [
          {
            "coding": [
              {
                "system": "http://terminology.hl7.org/CodeSystem/observation-category",
                "code": "vital-signs",
                "display": "Vital Signs"
              }
            ]
          }
        ],
        "valueQuantity": {
          "value": 92,
          "code": "mm[Hg]",
          "unit": "mm[Hg]"
        },
        "text": {
          "status": "generated",
          "div": "<div xmlns=\"http://www.w3.org/1999/xhtml\"><table class=\"hl7__ips\"><tr><th>Vital Sign</th><th>Date</th><th>Measurement</th></tr><tr><td>Diastolic Blood Pressure</td><td>10-Nov-2024</td><td>92 mm[Hg]</td></tr></table></div>"
        },
        "status": "final",
        "code": {
          "coding": [
            {
              "code": "8462-4",
              "system": "http://loinc.org",
              "display": "Diastolic Blood Pressure"
            }
          ]
        },
        "subject": {
          "reference": "urn:uuid:4e6bfcf4-42f1-416b-994d-26f1ac0c0677",
          "display": "Lily van &#039;t Houteveen"
        },
        "effectiveDateTime": "2024-11-10"
      }
    },
    {
      "fullUrl": "urn:uuid:a3a41314-f4a7-46c4-966e-89b3cbe71757",
      "resource": {
        "resourceType": "Observation",
        "id": "a3a41314-f4a7-46c4-966e-89b3cbe71757",
        "meta": {
          "profile": [
            "http://hl7.org/fhir/StructureDefinition/vitalsigns"
          ]
        },
        "category": [
          {
            "coding": [
              {
                "system": "http://terminology.hl7.org/CodeSystem/observation-category",
                "code": "vital-signs",
                "display": "Vital Signs"
              }
            ]
          }
        ],
        "valueQuantity": {
          "value": 113,
          "code": "mm[Hg]",
          "unit": "mm[Hg]"
        },
        "text": {
          "status": "generated",
          "div": "<div xmlns=\"http://www.w3.org/1999/xhtml\"><table class=\"hl7__ips\"><tr><th>Vital Sign</th><th>Date</th><th>Measurement</th></tr><tr><td>Systolic Blood Pressure</td><td>10-Nov-2024</td><td>113 mm[Hg]</td></tr></table></div>"
        },
        "status": "final",
        "code": {
          "coding": [
            {
              "code": "8480-6",
              "system": "http://loinc.org",
              "display": "Systolic Blood Pressure"
            }
          ]
        },
        "subject": {
          "reference": "urn:uuid:4e6bfcf4-42f1-416b-994d-26f1ac0c0677",
          "display": "Lily van &#039;t Houteveen"
        },
        "effectiveDateTime": "2024-11-10"
      }
    },
    {
      "fullUrl": "urn:uuid:1568aa25-3c00-4f90-8818-bcbd13932209",
      "resource": {
        "resourceType": "Observation",
        "id": "1568aa25-3c00-4f90-8818-bcbd13932209",
        "meta": {
          "profile": [
            "http://hl7.org/fhir/StructureDefinition/vitalsigns"
          ]
        },
        "category": [
          {
            "coding": [
              {
                "system": "http://terminology.hl7.org/CodeSystem/observation-category",
                "code": "vital-signs",
                "display": "Vital Signs"
              }
            ]
          }
        ],
        "valueQuantity": {
          "value": 90,
          "code": "/min",
          "unit": "/min"
        },
        "text": {
          "status": "generated",
          "div": "<div xmlns=\"http://www.w3.org/1999/xhtml\"><table class=\"hl7__ips\"><tr><th>Vital Sign</th><th>Date</th><th>Measurement</th></tr><tr><td>Heart rate</td><td>10-Nov-2024</td><td>90 /min</td></tr></table></div>"
        },
        "status": "final",
        "code": {
          "coding": [
            {
              "code": "8867-4",
              "system": "http://loinc.org",
              "display": "Heart rate"
            }
          ]
        },
        "subject": {
          "reference": "urn:uuid:4e6bfcf4-42f1-416b-994d-26f1ac0c0677",
          "display": "Lily van &#039;t Houteveen"
        },
        "effectiveDateTime": "2024-11-10"
      }
    },
    {
      "fullUrl": "urn:uuid:d4e15888-1d2a-4730-9a8e-53afe9a5e85f",
      "resource": {
        "resourceType": "Observation",
        "id": "d4e15888-1d2a-4730-9a8e-53afe9a5e85f",
        "meta": {
          "profile": [
            "http://hl7.org/fhir/StructureDefinition/vitalsigns"
          ]
        },
        "category": [
          {
            "coding": [
              {
                "system": "http://terminology.hl7.org/CodeSystem/observation-category",
                "code": "vital-signs",
                "display": "Vital Signs"
              }
            ]
          }
        ],
        "valueQuantity": {
          "value": 14,
          "code": "/min",
          "unit": "/min"
        },
        "text": {
          "status": "generated",
          "div": "<div xmlns=\"http://www.w3.org/1999/xhtml\"><table class=\"hl7__ips\"><tr><th>Vital Sign</th><th>Date</th><th>Measurement</th></tr><tr><td>Respiratory rate</td><td>10-Nov-2024</td><td>14 /min</td></tr></table></div>"
        },
        "status": "final",
        "code": {
          "coding": [
            {
              "code": "9279-1",
              "system": "http://loinc.org",
              "display": "Respiratory rate"
            }
          ]
        },
        "subject": {
          "reference": "urn:uuid:4e6bfcf4-42f1-416b-994d-26f1ac0c0677",
          "display": "Lily van &#039;t Houteveen"
        },
        "effectiveDateTime": "2024-11-10"
      }
    },
    {
      "fullUrl": "urn:uuid:39e876db-8c95-4863-a21f-23e81f0f9d86",
      "resource": {
        "resourceType": "Observation",
        "id": "39e876db-8c95-4863-a21f-23e81f0f9d86",
        "meta": {
          "profile": [
            "http://hl7.org/fhir/StructureDefinition/vitalsigns"
          ]
        },
        "category": [
          {
            "coding": [
              {
                "system": "http://terminology.hl7.org/CodeSystem/observation-category",
                "code": "vital-signs",
                "display": "Vital Signs"
              }
            ]
          }
        ],
        "valueQuantity": {
          "value": 168.1,
          "code": "cm",
          "unit": "cm"
        },
        "text": {
          "status": "generated",
          "div": "<div xmlns=\"http://www.w3.org/1999/xhtml\"><table class=\"hl7__ips\"><tr><th>Vital Sign</th><th>Date</th><th>Measurement</th></tr><tr><td>Body Height</td><td>05-Nov-2023</td><td>168.1 cm</td></tr></table></div>"
        },
        "status": "final",
        "code": {
          "coding": [
            {
              "code": "8302-2",
              "system": "http://loinc.org",
              "display": "Body Height"
            }
          ]
        },
        "subject": {
          "reference": "urn:uuid:4e6bfcf4-42f1-416b-994d-26f1ac0c0677",
          "display": "Lily van &#039;t Houteveen"
        },
        "effectiveDateTime": "2023-11-05"
      }
    },
    {
      "fullUrl": "urn:uuid:d468c255-d47a-4305-b039-f9eaad4cb44e",
      "resource": {
        "resourceType": "Observation",
        "id": "d468c255-d47a-4305-b039-f9eaad4cb44e",
        "meta": {
          "profile": [
            "http://hl7.org/fhir/StructureDefinition/vitalsigns"
          ]
        },
        "category": [
          {
            "coding": [
              {
                "system": "http://terminology.hl7.org/CodeSystem/observation-category",
                "code": "vital-signs",
                "display": "Vital Signs"
              }
            ]
          }
        ],
        "valueQuantity": {
          "value": 1,
          "code": "{score}",
          "unit": "{score}"
        },
        "text": {
          "status": "generated",
          "div": "<div xmlns=\"http://www.w3.org/1999/xhtml\"><table class=\"hl7__ips\"><tr><th>Vital Sign</th><th>Date</th><th>Measurement</th></tr><tr><td>Pain severity - 0-10 verbal numeric rating [Score] - Reported</td><td>05-Nov-2023</td><td>1 {score}</td></tr></table></div>"
        },
        "status": "final",
        "code": {
          "coding": [
            {
              "code": "72514-3",
              "system": "http://loinc.org",
              "display": "Pain severity - 0-10 verbal numeric rating [Score] - Reported"
            }
          ]
        },
        "subject": {
          "reference": "urn:uuid:4e6bfcf4-42f1-416b-994d-26f1ac0c0677",
          "display": "Lily van &#039;t Houteveen"
        },
        "effectiveDateTime": "2023-11-05"
      }
    },
    {
      "fullUrl": "urn:uuid:51d24796-6ce3-408d-ae26-331246616c65",
      "resource": {
        "resourceType": "Observation",
        "id": "51d24796-6ce3-408d-ae26-331246616c65",
        "meta": {
          "profile": [
            "http://hl7.org/fhir/StructureDefinition/vitalsigns"
          ]
        },
        "category": [
          {
            "coding": [
              {
                "system": "http://terminology.hl7.org/CodeSystem/observation-category",
                "code": "vital-signs",
                "display": "Vital Signs"
              }
            ]
          }
        ],
        "valueQuantity": {
          "value": 84.4,
          "code": "kg",
          "unit": "kg"
        },
        "text": {
          "status": "generated",
          "div": "<div xmlns=\"http://www.w3.org/1999/xhtml\"><table class=\"hl7__ips\"><tr><th>Vital Sign</th><th>Date</th><th>Measurement</th></tr><tr><td>Body Weight</td><td>05-Nov-2023</td><td>84.4 kg</td></tr></table></div>"
        },
        "status": "final",
        "code": {
          "coding": [
            {
              "code": "29463-7",
              "system": "http://loinc.org",
              "display": "Body Weight"
            }
          ]
        },
        "subject": {
          "reference": "urn:uuid:4e6bfcf4-42f1-416b-994d-26f1ac0c0677",
          "display": "Lily van &#039;t Houteveen"
        },
        "effectiveDateTime": "2023-11-05"
      }
    },
    {
      "fullUrl": "urn:uuid:22dd6799-71d8-414d-bf55-cd65d3ea998c",
      "resource": {
        "resourceType": "Observation",
        "id": "22dd6799-71d8-414d-bf55-cd65d3ea998c",
        "meta": {
          "profile": [
            "http://hl7.org/fhir/StructureDefinition/vitalsigns"
          ]
        },
        "category": [
          {
            "coding": [
              {
                "system": "http://terminology.hl7.org/CodeSystem/observation-category",
                "code": "vital-signs",
                "display": "Vital Signs"
              }
            ]
          }
        ],
        "valueQuantity": {
          "value": 29.9,
          "code": "kg/m2",
          "unit": "kg/m2"
        },
        "text": {
          "status": "generated",
          "div": "<div xmlns=\"http://www.w3.org/1999/xhtml\"><table class=\"hl7__ips\"><tr><th>Vital Sign</th><th>Date</th><th>Measurement</th></tr><tr><td>Body mass index (BMI) [Ratio]</td><td>05-Nov-2023</td><td>29.9 kg/m2</td></tr></table></div>"
        },
        "status": "final",
        "code": {
          "coding": [
            {
              "code": "39156-5",
              "system": "http://loinc.org",
              "display": "Body mass index (BMI) [Ratio]"
            }
          ]
        },
        "subject": {
          "reference": "urn:uuid:4e6bfcf4-42f1-416b-994d-26f1ac0c0677",
          "display": "Lily van &#039;t Houteveen"
        },
        "effectiveDateTime": "2023-11-05"
      }
    },
    {
      "fullUrl": "urn:uuid:1efe2316-cdee-48fa-8fb3-11ea53684a2d",
      "resource": {
        "resourceType": "Observation",
        "id": "1efe2316-cdee-48fa-8fb3-11ea53684a2d",
        "meta": {
          "profile": [
            "http://hl7.org/fhir/StructureDefinition/vitalsigns"
          ]
        },
        "category": [
          {
            "coding": [
              {
                "system": "http://terminology.hl7.org/CodeSystem/observation-category",
                "code": "vital-signs",
                "display": "Vital Signs"
              }
            ]
          }
        ],
        "valueQuantity": {
          "value": 88,
          "code": "mm[Hg]",
          "unit": "mm[Hg]"
        },
        "text": {
          "status": "generated",
          "div": "<div xmlns=\"http://www.w3.org/1999/xhtml\"><table class=\"hl7__ips\"><tr><th>Vital Sign</th><th>Date</th><th>Measurement</th></tr><tr><td>Diastolic Blood Pressure</td><td>05-Nov-2023</td><td>88 mm[Hg]</td></tr></table></div>"
        },
        "status": "final",
        "code": {
          "coding": [
            {
              "code": "8462-4",
              "system": "http://loinc.org",
              "display": "Diastolic Blood Pressure"
            }
          ]
        },
        "subject": {
          "reference": "urn:uuid:4e6bfcf4-42f1-416b-994d-26f1ac0c0677",
          "display": "Lily van &#039;t Houteveen"
        },
        "effectiveDateTime": "2023-11-05"
      }
    },
    {
      "fullUrl": "urn:uuid:790f5408-44a3-4425-bb64-1b3c0819e847",
      "resource": {
        "resourceType": "Observation",
        "id": "790f5408-44a3-4425-bb64-1b3c0819e847",
        "meta": {
          "profile": [
            "http://hl7.org/fhir/StructureDefinition/vitalsigns"
          ]
        },
        "category": [
          {
            "coding": [
              {
                "system": "http://terminology.hl7.org/CodeSystem/observation-category",
                "code": "vital-signs",
                "display": "Vital Signs"
              }
            ]
          }
        ],
        "valueQuantity": {
          "value": 121,
          "code": "mm[Hg]",
          "unit": "mm[Hg]"
        },
        "text": {
          "status": "generated",
          "div": "<div xmlns=\"http://www.w3.org/1999/xhtml\"><table class=\"hl7__ips\"><tr><th>Vital Sign</th><th>Date</th><th>Measurement</th></tr><tr><td>Systolic Blood Pressure</td><td>05-Nov-2023</td><td>121 mm[Hg]</td></tr></table></div>"
        },
        "status": "final",
        "code": {
          "coding": [
            {
              "code": "8480-6",
              "system": "http://loinc.org",
              "display": "Systolic Blood Pressure"
            }
          ]
        },
        "subject": {
          "reference": "urn:uuid:4e6bfcf4-42f1-416b-994d-26f1ac0c0677",
          "display": "Lily van &#039;t Houteveen"
        },
        "effectiveDateTime": "2023-11-05"
      }
    },
    {
      "fullUrl": "urn:uuid:95001555-a2ee-4d75-8968-9eeb1ecbdb9c",
      "resource": {
        "resourceType": "Observation",
        "id": "95001555-a2ee-4d75-8968-9eeb1ecbdb9c",
        "meta": {
          "profile": [
            "http://hl7.org/fhir/StructureDefinition/vitalsigns"
          ]
        },
        "category": [
          {
            "coding": [
              {
                "system": "http://terminology.hl7.org/CodeSystem/observation-category",
                "code": "vital-signs",
                "display": "Vital Signs"
              }
            ]
          }
        ],
        "valueQuantity": {
          "value": 96,
          "code": "/min",
          "unit": "/min"
        },
        "text": {
          "status": "generated",
          "div": "<div xmlns=\"http://www.w3.org/1999/xhtml\"><table class=\"hl7__ips\"><tr><th>Vital Sign</th><th>Date</th><th>Measurement</th></tr><tr><td>Heart rate</td><td>05-Nov-2023</td><td>96 /min</td></tr></table></div>"
        },
        "status": "final",
        "code": {
          "coding": [
            {
              "code": "8867-4",
              "system": "http://loinc.org",
              "display": "Heart rate"
            }
          ]
        },
        "subject": {
          "reference": "urn:uuid:4e6bfcf4-42f1-416b-994d-26f1ac0c0677",
          "display": "Lily van &#039;t Houteveen"
        },
        "effectiveDateTime": "2023-11-05"
      }
    },
    {
      "fullUrl": "urn:uuid:f25d7ac0-c367-4ec9-805e-c7a5f3af9106",
      "resource": {
        "resourceType": "Observation",
        "id": "f25d7ac0-c367-4ec9-805e-c7a5f3af9106",
        "meta": {
          "profile": [
            "http://hl7.org/fhir/StructureDefinition/vitalsigns"
          ]
        },
        "category": [
          {
            "coding": [
              {
                "system": "http://terminology.hl7.org/CodeSystem/observation-category",
                "code": "vital-signs",
                "display": "Vital Signs"
              }
            ]
          }
        ],
        "valueQuantity": {
          "value": 15,
          "code": "/min",
          "unit": "/min"
        },
        "text": {
          "status": "generated",
          "div": "<div xmlns=\"http://www.w3.org/1999/xhtml\"><table class=\"hl7__ips\"><tr><th>Vital Sign</th><th>Date</th><th>Measurement</th></tr><tr><td>Respiratory rate</td><td>05-Nov-2023</td><td>15 /min</td></tr></table></div>"
        },
        "status": "final",
        "code": {
          "coding": [
            {
              "code": "9279-1",
              "system": "http://loinc.org",
              "display": "Respiratory rate"
            }
          ]
        },
        "subject": {
          "reference": "urn:uuid:4e6bfcf4-42f1-416b-994d-26f1ac0c0677",
          "display": "Lily van &#039;t Houteveen"
        },
        "effectiveDateTime": "2023-11-05"
      }
    },
    {
      "fullUrl": "urn:uuid:2705c0f6-549a-44cf-a199-b334030bc6f8",
      "resource": {
        "resourceType": "Observation",
        "id": "2705c0f6-549a-44cf-a199-b334030bc6f8",
        "meta": {
          "profile": [
            "http://hl7.eu/fhir/laboratory/StructureDefinition/Observation-resultslab-eu-lab"
          ]
        },
        "performer": [
          {
            "display": "The Central European Lab"
          }
        ],
        "category": [
          {
            "coding": [
              {
                "system": "http://terminology.hl7.org/CodeSystem/observation-category",
                "code": "laboratory"
              }
            ]
          }
        ],
        "code": {
          "coding": [
            {
              "code": "2093-3",
              "system": "http://loinc.org",
              "display": "Cholesterol [Mass/volume] in Serum or Plasma"
            }
          ],
          "text": "Cholesterol [Mass/volume] in Serum or Plasma"
        },
        "valueQuantity": {
          "system": "http://unitsofmeasure.org",
          "value": 122.5,
          "unit": "mg/dL",
          "code": "mg/dL"
        },
        "referenceRange": [
          {
            "low": {
              "value": 125,
              "code": "mg/dL",
              "system": "http://unitsofmeasure.org"
            }
          },
          {
            "high": {
              "value": 200,
              "code": "mg/dL",
              "system": "http://unitsofmeasure.org"
            }
          }
        ],
        "interpretation": [
          {
            "coding": [
              {
                "code": "L",
                "system": "http://terminology.hl7.org/CodeSystem/v3-ObservationInterpretation",
                "display": "Low"
              }
            ]
          }
        ],
        "text": {
          "status": "generated",
          "div": "<div xmlns=\"http://www.w3.org/1999/xhtml\"><table class=\"hl7__eu__lab__report\"><tr><th>Test</th><th>30-Oct-2022</th><th>Reference&#xA0;Range</th><th>Unit</th></tr><tr><td>Cholesterol [Mass/volume] in Serum or Plasma</td><td>122.5</td><td>125 - 200</td><td>L</td><td>mg/dL</td></tr></table></div>"
        },
        "status": "final",
        "subject": {
          "reference": "urn:uuid:4e6bfcf4-42f1-416b-994d-26f1ac0c0677",
          "display": "Lily van &#039;t Houteveen"
        },
        "effectiveDateTime": "2022-10-30T00:57:23Z"
      }
    },
    {
      "fullUrl": "urn:uuid:4577d16f-e187-4044-afa0-4ea0d17d86d0",
      "resource": {
        "resourceType": "Observation",
        "id": "4577d16f-e187-4044-afa0-4ea0d17d86d0",
        "meta": {
          "profile": [
            "http://hl7.eu/fhir/laboratory/StructureDefinition/Observation-resultslab-eu-lab"
          ]
        },
        "performer": [
          {
            "display": "The Central European Lab"
          }
        ],
        "category": [
          {
            "coding": [
              {
                "system": "http://terminology.hl7.org/CodeSystem/observation-category",
                "code": "laboratory"
              }
            ]
          }
        ],
        "code": {
          "coding": [
            {
              "code": "2571-8",
              "system": "http://loinc.org",
              "display": "Triglyceride [Mass/volume] in Serum or Plasma"
            }
          ],
          "text": "Triglyceride [Mass/volume] in Serum or Plasma"
        },
        "valueQuantity": {
          "system": "http://unitsofmeasure.org",
          "value": 125.3,
          "unit": "mg/dL",
          "code": "mg/dL"
        },
        "referenceRange": [
          {
            "low": {
              "value": 35,
              "code": "mg/dL",
              "system": "http://unitsofmeasure.org"
            }
          },
          {
            "high": {
              "value": 150,
              "code": "mg/dL",
              "system": "http://unitsofmeasure.org"
            }
          }
        ],
        "text": {
          "status": "generated",
          "div": "<div xmlns=\"http://www.w3.org/1999/xhtml\"><table class=\"hl7__eu__lab__report\"><tr><th>Test</th><th>30-Oct-2022</th><th>Reference&#xA0;Range</th><th>Unit</th></tr><tr><td>Triglyceride [Mass/volume] in Serum or Plasma</td><td>125.3</td><td>35 - 150</td><td></td><td>mg/dL</td></tr></table></div>"
        },
        "status": "final",
        "subject": {
          "reference": "urn:uuid:4e6bfcf4-42f1-416b-994d-26f1ac0c0677",
          "display": "Lily van &#039;t Houteveen"
        },
        "effectiveDateTime": "2022-10-30T00:57:23Z"
      }
    },
    {
      "fullUrl": "urn:uuid:cda76d4b-dc0d-4663-9b8a-2c5356b726a4",
      "resource": {
        "resourceType": "Observation",
        "id": "cda76d4b-dc0d-4663-9b8a-2c5356b726a4",
        "meta": {
          "profile": [
            "http://hl7.eu/fhir/laboratory/StructureDefinition/Observation-resultslab-eu-lab"
          ]
        },
        "performer": [
          {
            "display": "The Central European Lab"
          }
        ],
        "category": [
          {
            "coding": [
              {
                "system": "http://terminology.hl7.org/CodeSystem/observation-category",
                "code": "laboratory"
              }
            ]
          }
        ],
        "code": {
          "coding": [
            {
              "code": "18262-6",
              "system": "http://loinc.org",
              "display": "Cholesterol in LDL [Mass/volume] in Serum or Plasma by Direct assay"
            }
          ],
          "text": "Cholesterol in LDL [Mass/volume] in Serum or Plasma by Direct assay"
        },
        "valueQuantity": {
          "system": "http://unitsofmeasure.org",
          "value": 42,
          "unit": "mg/dL",
          "code": "mg/dL"
        },
        "referenceRange": [
          {
            "low": {
              "value": 0,
              "code": "mg/dL",
              "system": "http://unitsofmeasure.org"
            }
          },
          {
            "high": {
              "value": 130,
              "code": "mg/dL",
              "system": "http://unitsofmeasure.org"
            }
          }
        ],
        "text": {
          "status": "generated",
          "div": "<div xmlns=\"http://www.w3.org/1999/xhtml\"><table class=\"hl7__eu__lab__report\"><tr><th>Test</th><th>30-Oct-2022</th><th>Reference&#xA0;Range</th><th>Unit</th></tr><tr><td>Cholesterol in LDL [Mass/volume] in Serum or Plasma by Direct assay</td><td>42.0</td><td>0 - 130</td><td></td><td>mg/dL</td></tr></table></div>"
        },
        "status": "final",
        "subject": {
          "reference": "urn:uuid:4e6bfcf4-42f1-416b-994d-26f1ac0c0677",
          "display": "Lily van &#039;t Houteveen"
        },
        "effectiveDateTime": "2022-10-30T00:57:23Z"
      }
    },
    {
      "fullUrl": "urn:uuid:6aa206a8-d0b1-4a37-be9f-1fe74f432839",
      "resource": {
        "resourceType": "Observation",
        "id": "6aa206a8-d0b1-4a37-be9f-1fe74f432839",
        "meta": {
          "profile": [
            "http://hl7.eu/fhir/laboratory/StructureDefinition/Observation-resultslab-eu-lab"
          ]
        },
        "performer": [
          {
            "display": "The Central European Lab"
          }
        ],
        "category": [
          {
            "coding": [
              {
                "system": "http://terminology.hl7.org/CodeSystem/observation-category",
                "code": "laboratory"
              }
            ]
          }
        ],
        "code": {
          "coding": [
            {
              "code": "2085-9",
              "system": "http://loinc.org",
              "display": "Cholesterol in HDL [Mass/volume] in Serum or Plasma"
            }
          ],
          "text": "Cholesterol in HDL [Mass/volume] in Serum or Plasma"
        },
        "valueQuantity": {
          "system": "http://unitsofmeasure.org",
          "value": 55.5,
          "unit": "mg/dL",
          "code": "mg/dL"
        },
        "referenceRange": [
          {
            "low": {
              "value": 45,
              "code": "mg/dL",
              "system": "http://unitsofmeasure.org"
            }
          },
          {
            "high": {
              "value": 95,
              "code": "mg/dL",
              "system": "http://unitsofmeasure.org"
            }
          }
        ],
        "text": {
          "status": "generated",
          "div": "<div xmlns=\"http://www.w3.org/1999/xhtml\"><table class=\"hl7__eu__lab__report\"><tr><th>Test</th><th>30-Oct-2022</th><th>Reference&#xA0;Range</th><th>Unit</th></tr><tr><td>Cholesterol in HDL [Mass/volume] in Serum or Plasma</td><td>55.5</td><td>45 - 95</td><td></td><td>mg/dL</td></tr></table></div>"
        },
        "status": "final",
        "subject": {
          "reference": "urn:uuid:4e6bfcf4-42f1-416b-994d-26f1ac0c0677",
          "display": "Lily van &#039;t Houteveen"
        },
        "effectiveDateTime": "2022-10-30T00:57:23Z"
      }
    },
    {
      "fullUrl": "urn:uuid:82851773-8257-4aea-bd64-ea2fa18fe562",
      "resource": {
        "resourceType": "DeviceUseStatement",
        "id": "82851773-8257-4aea-bd64-ea2fa18fe562",
        "meta": {
          "profile": [
            "http://hl7.eu/fhir/eps/StructureDefinition/deviceUseStatement-eu-eps"
          ]
        },
        "timingPeriod": {
          "start": "2020-01-21"
        },
        "text": {
          "status": "generated",
          "div": "<div xmlns=\"http://www.w3.org/1999/xhtml\"><table class=\"hl7__ips\"><tr><td>Walker (physical object)</td><td><span class=\"nb\">21-Jan-2020</span></td></tr></table></div>"
        },
        "status": "active",
        "device": {
          "reference": "urn:uuid:1d6bbfe1-271e-4690-b75e-ed859a3dbbfa",
          "display": "Walker (physical object)"
        },
        "subject": {
          "reference": "urn:uuid:4e6bfcf4-42f1-416b-994d-26f1ac0c0677",
          "display": "Lily van &#039;t Houteveen"
        }
      }
    },
    {
      "fullUrl": "urn:uuid:1d6bbfe1-271e-4690-b75e-ed859a3dbbfa",
      "resource": {
        "resourceType": "Device",
        "id": "1d6bbfe1-271e-4690-b75e-ed859a3dbbfa",
        "meta": {
          "profile": [
            "http://hl7.eu/fhir/eps/StructureDefinition/device-eu-eps"
          ]
        },
        "udiCarrier": [
          {
            "id": "(01)75134664395058(11)201231(17)450114(10)5523282391456(21)4458050"
          }
        ],
        "status": "active",
        "patient": {
          "reference": "urn:uuid:4e6bfcf4-42f1-416b-994d-26f1ac0c0677",
          "display": "Lily van &#039;t Houteveen"
        },
        "type": {
          "coding": [
            {
              "code": "705406009",
              "system": "http://snomed.info/sct",
              "display": "Walker (physical object)"
            }
          ]
        }
      }
    },
    {
      "fullUrl": "urn:uuid:3471f2b1-0f88-415c-8a65-bd368064d65b",
      "resource": {
        "resourceType": "DeviceUseStatement",
        "id": "3471f2b1-0f88-415c-8a65-bd368064d65b",
        "meta": {
          "profile": [
            "http://hl7.eu/fhir/eps/StructureDefinition/deviceUseStatement-eu-eps"
          ]
        },
        "timingPeriod": {
          "start": "2002-01-29"
        },
        "text": {
          "status": "generated",
          "div": "<div xmlns=\"http://www.w3.org/1999/xhtml\"><table class=\"hl7__ips\"><tr><td>Home nebulizer (physical object)</td><td><span class=\"nb\">29-Jan-2002</span></td></tr></table></div>"
        },
        "status": "active",
        "device": {
          "reference": "urn:uuid:8fce8fb4-e974-4785-a1a5-965ce972c0c9",
          "display": "Home nebulizer (physical object)"
        },
        "subject": {
          "reference": "urn:uuid:4e6bfcf4-42f1-416b-994d-26f1ac0c0677",
          "display": "Lily van &#039;t Houteveen"
        }
      }
    },
    {
      "fullUrl": "urn:uuid:8fce8fb4-e974-4785-a1a5-965ce972c0c9",
      "resource": {
        "resourceType": "Device",
        "id": "8fce8fb4-e974-4785-a1a5-965ce972c0c9",
        "meta": {
          "profile": [
            "http://hl7.eu/fhir/eps/StructureDefinition/device-eu-eps"
          ]
        },
        "udiCarrier": [
          {
            "id": "(01)64109491454765(11)020108(17)270123(10)223333435267696(21)2002611194510046259"
          }
        ],
        "status": "active",
        "patient": {
          "reference": "urn:uuid:4e6bfcf4-42f1-416b-994d-26f1ac0c0677",
          "display": "Lily van &#039;t Houteveen"
        },
        "type": {
          "coding": [
            {
              "code": "170615005",
              "system": "http://snomed.info/sct",
              "display": "Home nebulizer (physical object)"
            }
          ]
        }
      }
    },
    {
      "fullUrl": "urn:uuid:13a5303b-15bc-49ac-b4f0-14ff002c4757",
      "resource": {
        "resourceType": "Device",
        "id": "13a5303b-15bc-49ac-b4f0-14ff002c4757",
        "deviceName": [
          {
            "name": "SYNDERAI Synthetic Generator",
            "type": "manufacturer-name"
          }
        ],
        "version": [
          {
            "value": "5.0"
          }
        ],
        "text": {
          "status": "generated",
          "div": "<div xmlns=\"http://www.w3.org/1999/xhtml\">SYNDERAI Synthetic Generator v5.0</div>"
        },
        "status": "active",
        "distinctIdentifier": "synderai-generator-50",
        "manufacturer": "SYNDERAI Project"
      }
    },
    {
      "fullUrl": "urn:uuid:17e7ebe1-26ca-4ce1-9233-33b906e5089f",
      "resource": {
        "resourceType": "Provenance",
        "id": "17e7ebe1-26ca-4ce1-9233-33b906e5089f",
        "target": [
          {
            "reference": "Patient/4e6bfcf4-42f1-416b-994d-26f1ac0c0677"
          },
          {
            "reference": "Bundle/1885d146-a8de-4dcf-b405-9f568ab2625c"
          },
          {
            "reference": "Composition/17b6fb33-7dbf-4fae-a24e-aa772cba4cfc"
          },
          {
            "reference": "PractitionerRole/85d7a127-6afc-4156-b3da-574235d429d0"
          },
          {
            "reference": "Organization/87ed10a6-0891-46b6-8b7b-a3c3002eafe2"
          },
          {
            "reference": "Practitioner/b1f77d95-ce1f-422e-a588-2ec17ae9ee87"
          }
        ],
        "activity": {
          "text": "Synthetic Example Data Generation"
        },
        "policy": [
          "https://synderai.net/synderai-synthetic-data-policy"
        ],
        "agent": [
          {
            "type": {
              "text": "author"
            },
            "who": {
              "reference": "Device/13a5303b-15bc-49ac-b4f0-14ff002c4757"
            }
          }
        ],
        "reason": [
          {
            "text": "Interoperability Testing and Training (non-clinical use)"
          }
        ],
        "text": {
          "status": "generated",
          "div": "<div xmlns=\"http://www.w3.org/1999/xhtml\">Provenance for SYNDERAI Synthetic Example Data Resource</div>"
        },
        "recorded": "2022-10-30T00:57:23Z"
      }
    }
  ],
  "type": "document",
  "timestamp": "2022-10-30T00:57:23Z"
}
