{
  "resourceType": "Bundle",
  "id": "1ebcef10-28e2-4a9b-95dc-ab3aab1cc080",
  "meta": {
    "profile": [
      "http://hl7.eu/fhir/eps/StructureDefinition/bundle-eu-eps"
    ]
  },
  "identifier": {
    "assigner": {
      "display": "HL7 Europe"
    },
    "system": "urn:oid:2.16.840.1.113883.2.51.999",
    "value": "90ea323b-4f92-496c-a9fa-fd051e5b4508"
  },
  "entry": [
    {
      "fullUrl": "urn:uuid:9867c3d0-57b6-4cdf-b234-6406a87e787a",
      "resource": {
        "resourceType": "Composition",
        "id": "9867c3d0-57b6-4cdf-b234-6406a87e787a",
        "meta": {
          "security": [
            {
              "system": "http://terminology.hl7.org/CodeSystem/v3-ActReason",
              "code": "HTEST"
            },
            {
              "system": "http://terminology.hl7.org/CodeSystem/v3-ActReason",
              "code": "TRAIN"
            }
          ],
          "tag": [
            {
              "system": "https://synderai.net/fhir/CodeSystem/tags",
              "code": "synthetic",
              "display": "SYNDERAI Synthetic data"
            }
          ],
          "profile": [
            "http://hl7.eu/fhir/eps/StructureDefinition/composition-eu-eps"
          ]
        },
        "identifier": {
          "assigner": {
            "display": "HL7 Europe"
          },
          "system": "urn:oid:2.16.840.1.113883.2.51.999",
          "value": "4ebdeccb-177d-49d1-b511-85ebe3a8bc55"
        },
        "type": {
          "coding": [
            {
              "code": "60591-5",
              "system": "http://loinc.org",
              "display": "Patient summary Document"
            }
          ],
          "text": "Patient summary Document"
        },
        "author": [
          {
            "reference": "urn:uuid:173a33f8-9b4e-4833-8064-268fd2497058"
          }
        ],
        "section": [
          {
            "text": {
              "status": "generated",
              "div": "<div xmlns=\"http://www.w3.org/1999/xhtml\"><table class=\"hl7__ips\"><tr><th>Condition</th><th>Onset Date</th><th>Status</th></tr><tr><td>Essential hypertension</td><td><span class=\"nb\">19-Jan-2010</span></td><td>active</td></tr></table></div>"
            },
            "entry": [
              {
                "reference": "urn:uuid:71c028e4-e6aa-4d38-acdc-280ffb49c0a7"
              }
            ],
            "code": {
              "coding": [
                {
                  "system": "http://loinc.org",
                  "code": "11450-4",
                  "display": "Problem list - Reported"
                }
              ]
            },
            "title": "Problem list"
          },
          {
            "text": {
              "status": "generated",
              "div": "<div xmlns=\"http://www.w3.org/1999/xhtml\"><table class=\"hl7__ips\"><tr><td>No known medications</td></tr></table></div>"
            },
            "entry": [
              {
                "reference": "urn:uuid:9d168aa3-dd09-4e3a-985c-cdca22ccf97a"
              }
            ],
            "code": {
              "coding": [
                {
                  "system": "http://loinc.org",
                  "code": "10160-0",
                  "display": "History of Medication use Narrative"
                }
              ]
            },
            "title": "Medication list"
          },
          {
            "text": {
              "status": "generated",
              "div": "<div xmlns=\"http://www.w3.org/1999/xhtml\"><table class=\"hl7__ips\"><tr><th>Vaccine</th><th>Date</th></tr><tr><td>Influenza virus antigen only vaccine product</td><td><span class=\"nb\">15-Apr-2025</span></td></tr><tr><td>SARS-CoV-2 mRNA vaccine</td><td><span class=\"nb\">12-Jan-2021</span></td></tr><tr><td>Hepatitis A virus antigen only vaccine product</td><td><span class=\"nb\">28-Feb-2017</span></td></tr><tr><td>Clostridium tetani toxoid antigen adsorbed only vaccine product</td><td><span class=\"nb\">28-Feb-2017</span></td></tr></table></div>"
            },
            "entry": [
              {
                "reference": "urn:uuid:c7e66684-1a94-4794-a41b-8362201b4838"
              }
            ],
            "code": {
              "coding": [
                {
                  "system": "http://loinc.org",
                  "code": "11369-6",
                  "display": "History of Immunization note"
                }
              ]
            },
            "title": "Immunizations list"
          },
          {
            "text": {
              "status": "generated",
              "div": "<div xmlns=\"http://www.w3.org/1999/xhtml\"><table class=\"hl7__ips\"><tr><th>Procedure</th><th>Date</th><th>Reason</th></tr><tr><td>Postoperative care</td><td><span class=\"nb\">22-Apr-2022</span></td><td>-</td></tr><tr><td>Excision of fallopian tube and surgical removal of ectopic pregnancy</td><td><span class=\"nb\">19-Apr-2022</span></td><td>Tubal pregnancy</td></tr><tr><td>Assessment of anxiety</td><td><span class=\"nb\">23-Mar-2022</span></td><td>-</td></tr><tr><td>Medication reconciliation</td><td><span class=\"nb\">22-Mar-2022</span></td><td>-</td></tr><tr><td>Assessment of health and social care needs</td><td><span class=\"nb\">22-Mar-2022</span></td><td>-</td></tr></table></div>"
            },
            "entry": [
              {
                "reference": "urn:uuid:f6f98e59-106c-4e30-92aa-f76fd17f9ce5"
              }
            ],
            "code": {
              "coding": [
                {
                  "system": "http://loinc.org",
                  "code": "47519-4",
                  "display": "History of Procedures Document"
                }
              ]
            },
            "title": "Procedure History list"
          },
          {
            "text": {
              "status": "generated",
              "div": "<div xmlns=\"http://www.w3.org/1999/xhtml\"><table class=\"hl7__ips\"><tr><th>Allergy/Intolerance</th><th>Onset Date</th><th>Status</th><th>Type</th><th>Reaction</th></tr><tr><td></td><td>?</td><td>active</td><td>?</td><td></td></tr></table></div>"
            },
            "entry": [
              {
                "reference": "urn:uuid:51bddb84-43ed-4964-b301-9d54dabdb0f4"
              }
            ],
            "code": {
              "coding": [
                {
                  "system": "http://loinc.org",
                  "code": "48765-2",
                  "display": "Allergies and adverse reactions Document"
                }
              ]
            },
            "title": "Allergies and Intolerances"
          },
          {
            "text": {
              "status": "generated",
              "div": "<div xmlns=\"http://www.w3.org/1999/xhtml\"><table class=\"hl7__ips\"><tr><th>Active Planned Care / Goals</th><th>Start Date</th><th>Reason</th></tr><tr><td>Lifestyle education regarding hypertension</td><td><span class=\"nb\">19-Jan-2010</span></td><td>Essential hypertension (disorder)</td></tr><tr><td><ul><li>Increase patient knowledge about hypertension and recommended lifestyle changes to support blood pressure control</li></ul></td><td></td><td></td></tr></table></div>"
            },
            "title": "Care Plan",
            "code": {
              "coding": [
                {
                  "code": "18776-5",
                  "system": "http://loinc.org",
                  "display": "Plan of care note"
                }
              ]
            }
          },
          {
            "text": {
              "status": "generated",
              "div": "<div xmlns=\"http://www.w3.org/1999/xhtml\"><table class=\"hl7__ips\"><tr><th>Vital Signs</th><th>2025-04-15</th><th>2024-04-09</th></tr><tr><td>Body Height</td><td>148.2 cm</td><td>148.2 cm</td></tr><tr><td>Pain severity - 0-10 verbal numeric rating [Score] - Reported</td><td>2 {score}</td><td>1 {score}</td></tr><tr><td>Body Weight</td><td>60.2 kg</td><td>60.2 kg</td></tr><tr><td>Body mass index (BMI) [Ratio]</td><td>27.4 kg/m2</td><td>27.4 kg/m2</td></tr><tr><td>Diastolic Blood Pressure</td><td>101 mm[Hg]</td><td>102 mm[Hg]</td></tr><tr><td>Systolic Blood Pressure</td><td>130 mm[Hg]</td><td>126 mm[Hg]</td></tr><tr><td>Heart rate</td><td>98 /min</td><td>77 /min</td></tr><tr><td>Respiratory rate</td><td>16 /min</td><td>14 /min</td></tr></table></div>"
            },
            "entry": [
              {
                "reference": "urn:uuid:abff7737-ddd3-4003-97b4-d20dea6437df"
              }
            ],
            "code": {
              "coding": [
                {
                  "system": "http://loinc.org",
                  "code": "8716-3",
                  "display": "Vital signs note"
                }
              ]
            },
            "title": "Vital Signs"
          },
          {
            "text": {
              "status": "generated",
              "div": "<div xmlns=\"http://www.w3.org/1999/xhtml\"><table class=\"hl7__ips\"><table class=\"hl7__ips\"><thead><tr><th>Recent Lab Observations</th><th>16-APR-2025</th><th>Reference&#xA0;Range</th><th>Unit</th></tr></thead><tbody><tr><td>Cholesterol [Mass/volume] in Serum or Plasma</td><td><strong>213.4 H</strong></td><td>125 - 200</td><td>mg/dL</td></tr><tr><td>Triglyceride [Mass/volume] in Serum or Plasma</td><td>111.0</td><td>35 - 150</td><td>mg/dL</td></tr><tr><td>Cholesterol in LDL [Mass/volume] in Serum or Plasma by Direct assay</td><td><strong>144.7 H</strong></td><td>0 - 130</td><td>mg/dL</td></tr><tr><td>Cholesterol in HDL [Mass/volume] in Serum or Plasma</td><td>46.5</td><td>40 - 100</td><td>mg/dL</td></tr><tr><td>Leukocytes [#/volume] in Blood by Automated count</td><td>5.4</td><td>3.4 - 10.5</td><td>10*3/uL</td></tr><tr><td>Erythrocytes [#/volume] in Blood by Automated count</td><td><strong>4.2 L</strong></td><td>4.8 - 5.8</td><td>10*6/uL</td></tr><tr><td>Hemoglobin [Mass/volume] in Blood</td><td><strong>17.3 H</strong></td><td>12 - 16</td><td>g/dL</td></tr><tr><td>Hematocrit [Volume Fraction] of Blood by Automated count</td><td>48.2</td><td>38 - 54</td><td>%</td></tr><tr><td>MCV [Entitic volume] by Automated count</td><td>88.7</td><td>82 - 98</td><td>fL</td></tr><tr><td>MCH [Entitic mass] by Automated count</td><td>32.7</td><td>27 - 34</td><td>pg</td></tr><tr><td>MCHC [Mass/volume] by Automated count</td><td>34.3</td><td>31 - 35</td><td>g/dL</td></tr><tr><td>Erythrocyte distribution width [Entitic volume] by Automated count</td><td>44.8</td><td>36 - 60</td><td>fL</td></tr><tr><td>Platelets [#/volume] in Blood by Automated count</td><td>261.8</td><td>150 - 350</td><td>10*3/uL</td></tr><tr><td>Platelet distribution width [Entitic volume] in Blood by Automated count</td><td><strong>156.8 H</strong></td><td>11.6 - 17.4</td><td>fL</td></tr><tr><td>Platelet mean volume [Entitic volume] in Blood by Automated count</td><td>10.1</td><td>7.2 - 13.5</td><td>fL</td></tr></tbody></table></table></div>"
            },
            "title": "Relevant diagnostic tests/laboratory data",
            "code": {
              "coding": [
                {
                  "code": "30954-2",
                  "system": "http://loinc.org",
                  "display": "Relevant diagnostic tests/laboratory data note"
                }
              ]
            }
          }
        ],
        "title": "European Patient Summary",
        "status": "final",
        "subject": {
          "reference": "urn:uuid:e9601f38-dd31-4dfd-94b1-40708cd75e1c",
          "display": "Lorelei Dima"
        },
        "custodian": {
          "reference": "urn:uuid:092fa2d1-3312-4715-b26f-5bcab5dd8ae3"
        },
        "date": "2025-04-16",
        "confidentiality": "N"
      }
    },
    {
      "fullUrl": "urn:uuid:e9601f38-dd31-4dfd-94b1-40708cd75e1c",
      "resource": {
        "resourceType": "Patient",
        "id": "e9601f38-dd31-4dfd-94b1-40708cd75e1c",
        "meta": {
          "security": [
            {
              "system": "http://terminology.hl7.org/CodeSystem/v3-ActReason",
              "code": "HTEST"
            },
            {
              "system": "http://terminology.hl7.org/CodeSystem/v3-ActReason",
              "code": "TRAIN"
            }
          ],
          "tag": [
            {
              "system": "https://synderai.net/fhir/CodeSystem/tags",
              "code": "synthetic",
              "display": "SYNDERAI Synthetic data"
            }
          ],
          "profile": [
            "http://hl7.eu/fhir/eps/StructureDefinition/patient-eu-eps"
          ]
        },
        "identifier": [
          {
            "type": {
              "coding": [
                {
                  "code": "PT",
                  "system": "http://terminology.hl7.org/CodeSystem/v2-0203"
                }
              ]
            },
            "system": "http://ec.europa.eu/identifier/eci",
            "value": "6535-673522-8"
          },
          {
            "type": {
              "coding": [
                {
                  "code": "MR",
                  "system": "http://terminology.hl7.org/CodeSystem/v2-0203"
                }
              ]
            },
            "system": "http://local.setting.eu/identifier",
            "value": "0bda59fd-bf11-d798-1575-3e22167e9675"
          }
        ],
        "name": [
          {
            "given": [
              "Lorelei"
            ],
            "family": "Dima",
            "text": "Lorelei Dima"
          }
        ],
        "address": [
          {
            "line": [
              "Bulevardul Tabacu"
            ],
            "use": "home",
            "type": "physical",
            "postalCode": "077135",
            "city": "Mogosoaia",
            "country": "Romania"
          }
        ],
        "telecom": [
          {
            "system": "phone",
            "value": "0756 768 335"
          }
        ],
        "extension": [
          {
            "url": "http://hl7.org/fhir/StructureDefinition/patient-nationality",
            "valueCodeableConcept": {
              "coding": [
                {
                  "code": "RO",
                  "system": "http://hl7.org/fhir/ValueSet/country"
                }
              ]
            }
          }
        ],
        "text": {
          "status": "generated",
          "div": "<div xmlns=\"http://www.w3.org/1999/xhtml\"><table class=\"hl7__ips\"><tr><td>Lorelei Dima</td><td>female</td><td>19-Jul-1977</td></tr></table></div>"
        },
        "gender": "female",
        "birthDate": "1977-07-19"
      }
    },
    {
      "fullUrl": "urn:uuid:173a33f8-9b4e-4833-8064-268fd2497058",
      "resource": {
        "resourceType": "PractitionerRole",
        "id": "173a33f8-9b4e-4833-8064-268fd2497058",
        "meta": {
          "profile": [
            "http://hl7.eu/fhir/base/StructureDefinition/practitionerRole-eu"
          ]
        },
        "text": {
          "status": "generated",
          "div": "<div xmlns=\"http://www.w3.org/1999/xhtml\"><table class=\"hl7__ips\">Provider Role Id 173a33f8-9b4e-4833-8064-268fd2497058</table></div>"
        },
        "practitioner": {
          "reference": "urn:uuid:591013af-65f7-4dde-b3a4-289aab62a226"
        },
        "organization": {
          "reference": "urn:uuid:092fa2d1-3312-4715-b26f-5bcab5dd8ae3"
        }
      }
    },
    {
      "fullUrl": "urn:uuid:092fa2d1-3312-4715-b26f-5bcab5dd8ae3",
      "resource": {
        "resourceType": "Organization",
        "id": "092fa2d1-3312-4715-b26f-5bcab5dd8ae3",
        "meta": {
          "profile": [
            "http://hl7.eu/fhir/base/StructureDefinition/organization-eu"
          ]
        },
        "identifier": [
          {
            "assigner": {
              "display": "HL7 Europe"
            },
            "system": "urn:oid:2.16.840.1.113883.2.51.999",
            "value": "04c24c92-ad7b-4da5-9d58-fe4b41711e99"
          }
        ],
        "address": [
          {
            "city": "București",
            "postalCode": "012196",
            "country": "Romania"
          }
        ],
        "text": {
          "status": "generated",
          "div": "<div xmlns=\"http://www.w3.org/1999/xhtml\"><table class=\"hl7__ips\">Spitalul Clinic de Urgență Chirurgie Plastică, Reparatorie și Arsuri</table></div>"
        },
        "name": "Spitalul Clinic de Urgență Chirurgie Plastică, Reparatorie și Arsuri"
      }
    },
    {
      "fullUrl": "urn:uuid:591013af-65f7-4dde-b3a4-289aab62a226",
      "resource": {
        "resourceType": "Practitioner",
        "id": "591013af-65f7-4dde-b3a4-289aab62a226",
        "meta": {
          "profile": [
            "http://hl7.eu/fhir/base/StructureDefinition/practitioner-eu"
          ]
        },
        "name": [
          {
            "prefix": [
              "Dr."
            ],
            "given": [
              "Hel"
            ],
            "family": "Ping"
          }
        ],
        "text": {
          "status": "generated",
          "div": "<div xmlns=\"http://www.w3.org/1999/xhtml\"><table class=\"hl7__ips\">Dr. Hel Ping</table></div>"
        }
      }
    },
    {
      "fullUrl": "urn:uuid:71c028e4-e6aa-4d38-acdc-280ffb49c0a7",
      "resource": {
        "resourceType": "Condition",
        "id": "71c028e4-e6aa-4d38-acdc-280ffb49c0a7",
        "meta": {
          "profile": [
            "http://hl7.org/fhir/uv/ips/StructureDefinition/Condition-uv-ips"
          ]
        },
        "category": [
          {
            "coding": [
              {
                "code": "problem-list-item",
                "system": "http://terminology.hl7.org/CodeSystem/condition-category",
                "display": "Problem List Item"
              }
            ]
          }
        ],
        "code": {
          "coding": [
            {
              "code": "59621000",
              "system": "http://snomed.info/sct",
              "display": "Essential hypertension (disorder)"
            }
          ],
          "text": "Essential hypertension"
        },
        "text": {
          "status": "generated",
          "div": "<div xmlns=\"http://www.w3.org/1999/xhtml\"><table class=\"hl7__ips\"><tr><td>Essential hypertension</td><td><span class=\"nb\">19-Jan-2010</span></td><td>active</td></tr></table></div>"
        },
        "onsetDateTime": "2010-01-19",
        "subject": {
          "reference": "urn:uuid:e9601f38-dd31-4dfd-94b1-40708cd75e1c",
          "display": "Lorelei Dima"
        },
        "asserter": {
          "reference": "urn:uuid:173a33f8-9b4e-4833-8064-268fd2497058",
          "display": "Spitalul Clinic de Urgență Chirurgie Plastică, Reparatorie și Arsuri"
        }
      }
    },
    {
      "fullUrl": "urn:uuid:973142ea-e799-46e4-8dbe-81a07846ba18",
      "resource": {
        "resourceType": "Condition",
        "id": "973142ea-e799-46e4-8dbe-81a07846ba18",
        "meta": {
          "profile": [
            "http://hl7.org/fhir/uv/ips/StructureDefinition/Condition-uv-ips"
          ]
        },
        "category": [
          {
            "coding": [
              {
                "code": "problem-list-item",
                "system": "http://terminology.hl7.org/CodeSystem/condition-category",
                "display": "Problem List Item"
              }
            ]
          }
        ],
        "code": {
          "coding": [
            {
              "code": "195662009",
              "system": "http://snomed.info/sct",
              "display": "Acute viral pharyngitis (disorder)"
            }
          ],
          "text": "Acute viral pharyngitis"
        },
        "text": {
          "status": "generated",
          "div": "<div xmlns=\"http://www.w3.org/1999/xhtml\"><table class=\"hl7__ips\"><tr><td><span class=\"grayedout\">Acute viral pharyngitis</span></td><td><span class=\"nb\">30-Jan-2024 - 11-Feb-2024</span></td><td><span class=\"grayedout\">inactive</span></td></tr></table></div>"
        },
        "onsetDateTime": "2024-01-30",
        "abatementDateTime": "2024-02-11",
        "subject": {
          "reference": "urn:uuid:e9601f38-dd31-4dfd-94b1-40708cd75e1c",
          "display": "Lorelei Dima"
        },
        "asserter": {
          "reference": "urn:uuid:173a33f8-9b4e-4833-8064-268fd2497058",
          "display": "Spitalul Clinic de Urgență Chirurgie Plastică, Reparatorie și Arsuri"
        }
      }
    },
    {
      "fullUrl": "urn:uuid:8fee219d-0d22-4b6c-aa93-1f40bfd504d6",
      "resource": {
        "resourceType": "Condition",
        "id": "8fee219d-0d22-4b6c-aa93-1f40bfd504d6",
        "meta": {
          "profile": [
            "http://hl7.org/fhir/uv/ips/StructureDefinition/Condition-uv-ips"
          ]
        },
        "category": [
          {
            "coding": [
              {
                "code": "problem-list-item",
                "system": "http://terminology.hl7.org/CodeSystem/condition-category",
                "display": "Problem List Item"
              }
            ]
          }
        ],
        "code": {
          "coding": [
            {
              "code": "10509002",
              "system": "http://snomed.info/sct",
              "display": "Acute bronchitis (disorder)"
            }
          ],
          "text": "Acute bronchitis"
        },
        "text": {
          "status": "generated",
          "div": "<div xmlns=\"http://www.w3.org/1999/xhtml\"><table class=\"hl7__ips\"><tr><td><span class=\"grayedout\">Acute bronchitis</span></td><td><span class=\"nb\">13-Apr-2022 - 28-Apr-2022</span></td><td><span class=\"grayedout\">inactive</span></td></tr></table></div>"
        },
        "onsetDateTime": "2022-04-13",
        "abatementDateTime": "2022-04-28",
        "subject": {
          "reference": "urn:uuid:e9601f38-dd31-4dfd-94b1-40708cd75e1c",
          "display": "Lorelei Dima"
        },
        "asserter": {
          "reference": "urn:uuid:173a33f8-9b4e-4833-8064-268fd2497058",
          "display": "Spitalul Clinic de Urgență Chirurgie Plastică, Reparatorie și Arsuri"
        }
      }
    },
    {
      "fullUrl": "urn:uuid:8220997a-7d6b-45df-84af-8dcf3d37d5cf",
      "resource": {
        "resourceType": "Condition",
        "id": "8220997a-7d6b-45df-84af-8dcf3d37d5cf",
        "meta": {
          "profile": [
            "http://hl7.org/fhir/uv/ips/StructureDefinition/Condition-uv-ips"
          ]
        },
        "category": [
          {
            "coding": [
              {
                "code": "problem-list-item",
                "system": "http://terminology.hl7.org/CodeSystem/condition-category",
                "display": "Problem List Item"
              }
            ]
          }
        ],
        "code": {
          "coding": [
            {
              "code": "19169002",
              "system": "http://snomed.info/sct",
              "display": "Miscarriage in first trimester (disorder)"
            }
          ],
          "text": "Miscarriage in first trimester"
        },
        "text": {
          "status": "generated",
          "div": "<div xmlns=\"http://www.w3.org/1999/xhtml\"><table class=\"hl7__ips\"><tr><td><span class=\"grayedout\">Miscarriage in first trimester</span></td><td><span class=\"nb\">15-Mar-2022 - 07-May-2022</span></td><td><span class=\"grayedout\">inactive</span></td></tr></table></div>"
        },
        "onsetDateTime": "2022-03-15",
        "abatementDateTime": "2022-05-07",
        "subject": {
          "reference": "urn:uuid:e9601f38-dd31-4dfd-94b1-40708cd75e1c",
          "display": "Lorelei Dima"
        },
        "asserter": {
          "reference": "urn:uuid:173a33f8-9b4e-4833-8064-268fd2497058",
          "display": "Spitalul Clinic de Urgență Chirurgie Plastică, Reparatorie și Arsuri"
        }
      }
    },
    {
      "fullUrl": "urn:uuid:390f7a7e-d9a4-4931-b4ce-73eca3ba6983",
      "resource": {
        "resourceType": "Condition",
        "id": "390f7a7e-d9a4-4931-b4ce-73eca3ba6983",
        "meta": {
          "profile": [
            "http://hl7.org/fhir/uv/ips/StructureDefinition/Condition-uv-ips"
          ]
        },
        "category": [
          {
            "coding": [
              {
                "code": "problem-list-item",
                "system": "http://terminology.hl7.org/CodeSystem/condition-category",
                "display": "Problem List Item"
              }
            ]
          }
        ],
        "code": {
          "coding": [
            {
              "code": "79586000",
              "system": "http://snomed.info/sct",
              "display": "Tubal pregnancy (disorder)"
            }
          ],
          "text": "Tubal pregnancy"
        },
        "text": {
          "status": "generated",
          "div": "<div xmlns=\"http://www.w3.org/1999/xhtml\"><table class=\"hl7__ips\"><tr><td><span class=\"grayedout\">Tubal pregnancy</span></td><td><span class=\"nb\">15-Mar-2022 - 07-May-2022</span></td><td><span class=\"grayedout\">inactive</span></td></tr></table></div>"
        },
        "onsetDateTime": "2022-03-15",
        "abatementDateTime": "2022-05-07",
        "subject": {
          "reference": "urn:uuid:e9601f38-dd31-4dfd-94b1-40708cd75e1c",
          "display": "Lorelei Dima"
        },
        "asserter": {
          "reference": "urn:uuid:173a33f8-9b4e-4833-8064-268fd2497058",
          "display": "Spitalul Clinic de Urgență Chirurgie Plastică, Reparatorie și Arsuri"
        }
      }
    },
    {
      "fullUrl": "urn:uuid:17f17e3d-09db-44d2-b3e4-b32003bcba10",
      "resource": {
        "resourceType": "Condition",
        "id": "17f17e3d-09db-44d2-b3e4-b32003bcba10",
        "meta": {
          "profile": [
            "http://hl7.org/fhir/uv/ips/StructureDefinition/Condition-uv-ips"
          ]
        },
        "category": [
          {
            "coding": [
              {
                "code": "problem-list-item",
                "system": "http://terminology.hl7.org/CodeSystem/condition-category",
                "display": "Problem List Item"
              }
            ]
          }
        ],
        "code": {
          "coding": [
            {
              "code": "70704007",
              "system": "http://snomed.info/sct",
              "display": "Sprain of wrist (disorder)"
            }
          ],
          "text": "Sprain of wrist"
        },
        "text": {
          "status": "generated",
          "div": "<div xmlns=\"http://www.w3.org/1999/xhtml\"><table class=\"hl7__ips\"><tr><td><span class=\"grayedout\">Sprain of wrist</span></td><td><span class=\"nb\">21-Feb-2021 - 03-Apr-2021</span></td><td><span class=\"grayedout\">inactive</span></td></tr></table></div>"
        },
        "onsetDateTime": "2021-02-21",
        "abatementDateTime": "2021-04-03",
        "subject": {
          "reference": "urn:uuid:e9601f38-dd31-4dfd-94b1-40708cd75e1c",
          "display": "Lorelei Dima"
        },
        "asserter": {
          "reference": "urn:uuid:173a33f8-9b4e-4833-8064-268fd2497058",
          "display": "Spitalul Clinic de Urgență Chirurgie Plastică, Reparatorie și Arsuri"
        }
      }
    },
    {
      "fullUrl": "urn:uuid:24dff1ce-016a-4c2a-9bf3-911af52479ca",
      "resource": {
        "resourceType": "Condition",
        "id": "24dff1ce-016a-4c2a-9bf3-911af52479ca",
        "meta": {
          "profile": [
            "http://hl7.org/fhir/uv/ips/StructureDefinition/Condition-uv-ips"
          ]
        },
        "category": [
          {
            "coding": [
              {
                "code": "problem-list-item",
                "system": "http://terminology.hl7.org/CodeSystem/condition-category",
                "display": "Problem List Item"
              }
            ]
          }
        ],
        "code": {
          "coding": [
            {
              "code": "44465007",
              "system": "http://snomed.info/sct",
              "display": "Sprain of ankle (disorder)"
            }
          ],
          "text": "Sprain of ankle"
        },
        "text": {
          "status": "generated",
          "div": "<div xmlns=\"http://www.w3.org/1999/xhtml\"><table class=\"hl7__ips\"><tr><td><span class=\"grayedout\">Sprain of ankle</span></td><td><span class=\"nb\">09-Apr-2019 - 01-May-2019</span></td><td><span class=\"grayedout\">inactive</span></td></tr></table></div>"
        },
        "onsetDateTime": "2019-04-09",
        "abatementDateTime": "2019-05-01",
        "subject": {
          "reference": "urn:uuid:e9601f38-dd31-4dfd-94b1-40708cd75e1c",
          "display": "Lorelei Dima"
        },
        "asserter": {
          "reference": "urn:uuid:173a33f8-9b4e-4833-8064-268fd2497058",
          "display": "Spitalul Clinic de Urgență Chirurgie Plastică, Reparatorie și Arsuri"
        }
      }
    },
    {
      "fullUrl": "urn:uuid:fa342b17-9500-4784-bbc6-cc172d971316",
      "resource": {
        "resourceType": "Condition",
        "id": "fa342b17-9500-4784-bbc6-cc172d971316",
        "meta": {
          "profile": [
            "http://hl7.org/fhir/uv/ips/StructureDefinition/Condition-uv-ips"
          ]
        },
        "category": [
          {
            "coding": [
              {
                "code": "problem-list-item",
                "system": "http://terminology.hl7.org/CodeSystem/condition-category",
                "display": "Problem List Item"
              }
            ]
          }
        ],
        "code": {
          "coding": [
            {
              "code": "195662009",
              "system": "http://snomed.info/sct",
              "display": "Acute viral pharyngitis (disorder)"
            }
          ],
          "text": "Acute viral pharyngitis"
        },
        "text": {
          "status": "generated",
          "div": "<div xmlns=\"http://www.w3.org/1999/xhtml\"><table class=\"hl7__ips\"><tr><td><span class=\"grayedout\">Acute viral pharyngitis</span></td><td><span class=\"nb\">26-Apr-2017 - 04-May-2017</span></td><td><span class=\"grayedout\">inactive</span></td></tr></table></div>"
        },
        "onsetDateTime": "2017-04-26",
        "abatementDateTime": "2017-05-04",
        "subject": {
          "reference": "urn:uuid:e9601f38-dd31-4dfd-94b1-40708cd75e1c",
          "display": "Lorelei Dima"
        },
        "asserter": {
          "reference": "urn:uuid:173a33f8-9b4e-4833-8064-268fd2497058",
          "display": "Spitalul Clinic de Urgență Chirurgie Plastică, Reparatorie și Arsuri"
        }
      }
    },
    {
      "fullUrl": "urn:uuid:9d168aa3-dd09-4e3a-985c-cdca22ccf97a",
      "resource": {
        "resourceType": "MedicationStatement",
        "id": "9d168aa3-dd09-4e3a-985c-cdca22ccf97a",
        "meta": {
          "profile": [
            "http://hl7.eu/fhir/eps/StructureDefinition/MedicationStatement-eu-eps"
          ]
        },
        "effectivePeriod": {
          "extension": [
            {
              "url": "http://hl7.org/fhir/StructureDefinition/data-absent-reason",
              "valueCode": "unknown"
            }
          ]
        },
        "status": "active",
        "medicationCodeableConcept": {
          "coding": [
            {
              "code": "787481004",
              "system": "http://snomed.info/sct",
              "display": "No known medications (situation)"
            }
          ]
        },
        "subject": {
          "reference": "urn:uuid:e9601f38-dd31-4dfd-94b1-40708cd75e1c",
          "display": "Lorelei Dima"
        }
      }
    },
    {
      "fullUrl": "urn:uuid:c7e66684-1a94-4794-a41b-8362201b4838",
      "resource": {
        "resourceType": "Immunization",
        "id": "c7e66684-1a94-4794-a41b-8362201b4838",
        "meta": {
          "profile": [
            "http://hl7.org/fhir/uv/ips/StructureDefinition/Immunization-uv-ips"
          ]
        },
        "vaccineCode": {
          "coding": [
            {
              "code": "1181000221105",
              "system": "http://snomed.info/sct",
              "display": "Vaccine product containing Influenza virus antigen"
            },
            {
              "code": "J07BB02",
              "system": "http://www.whocc.no/atc",
              "display": "Influenza, inactivated, split virus"
            }
          ],
          "text": "Influenza virus antigen only vaccine product"
        },
        "site": {
          "coding": [
            {
              "code": "244979005",
              "system": "http://snomed.info/sct",
              "display": "Entire muscle of upper arm"
            }
          ],
          "text": "Entire muscle of upper arm"
        },
        "route": {
          "coding": [
            {
              "code": "78421000",
              "system": "http://snomed.info/sct",
              "display": "Intramuscular route"
            }
          ],
          "text": "Intramuscular route"
        },
        "text": {
          "status": "generated",
          "div": "<div xmlns=\"http://www.w3.org/1999/xhtml\"><table class=\"hl7__ips\"><tr><td>Influenza virus antigen only vaccine product</td><td><span class=\"nb\">15-Apr-2025</span></td></tr></table></div>"
        },
        "status": "completed",
        "patient": {
          "reference": "urn:uuid:e9601f38-dd31-4dfd-94b1-40708cd75e1c",
          "display": "Lorelei Dima"
        },
        "occurrenceDateTime": "2025-04-15",
        "lotNumber": "AL-pD7E8i",
        "expirationDate": "2025-05-18"
      }
    },
    {
      "fullUrl": "urn:uuid:2bffa6e8-0f26-4636-bccc-ffd4275deeba",
      "resource": {
        "resourceType": "Immunization",
        "id": "2bffa6e8-0f26-4636-bccc-ffd4275deeba",
        "meta": {
          "profile": [
            "http://hl7.org/fhir/uv/ips/StructureDefinition/Immunization-uv-ips"
          ]
        },
        "vaccineCode": {
          "coding": [
            {
              "code": "1119349007",
              "system": "http://snomed.info/sct",
              "display": "Vaccine product containing SARS-CoV-2 mRNA"
            },
            {
              "code": "J07BX03",
              "system": "http://www.whocc.no/atc",
              "display": "COVID-19 mRNA vaccines"
            }
          ],
          "text": "SARS-CoV-2 mRNA vaccine"
        },
        "site": {
          "coding": [
            {
              "code": "244979005",
              "system": "http://snomed.info/sct",
              "display": "Entire muscle of upper arm"
            }
          ],
          "text": "Entire muscle of upper arm"
        },
        "route": {
          "coding": [
            {
              "code": "78421000",
              "system": "http://snomed.info/sct",
              "display": "Intramuscular route"
            }
          ],
          "text": "Intramuscular route"
        },
        "text": {
          "status": "generated",
          "div": "<div xmlns=\"http://www.w3.org/1999/xhtml\"><table class=\"hl7__ips\"><tr><td>SARS-CoV-2 mRNA vaccine</td><td><span class=\"nb\">12-Jan-2021</span></td></tr></table></div>"
        },
        "status": "completed",
        "patient": {
          "reference": "urn:uuid:e9601f38-dd31-4dfd-94b1-40708cd75e1c",
          "display": "Lorelei Dima"
        },
        "occurrenceDateTime": "2021-01-12",
        "lotNumber": "RC-ybQsXts",
        "expirationDate": "2021-06-01"
      }
    },
    {
      "fullUrl": "urn:uuid:96077734-4afa-4884-acdc-94fae98c8805",
      "resource": {
        "resourceType": "Immunization",
        "id": "96077734-4afa-4884-acdc-94fae98c8805",
        "meta": {
          "profile": [
            "http://hl7.org/fhir/uv/ips/StructureDefinition/Immunization-uv-ips"
          ]
        },
        "vaccineCode": {
          "coding": [
            {
              "code": "871751006",
              "system": "http://snomed.info/sct",
              "display": "Vaccine product containing Hepatitis A virus antigen"
            },
            {
              "code": "J07BC02",
              "system": "http://www.whocc.no/atc",
              "display": "Hepatitis A vaccines"
            }
          ],
          "text": "Hepatitis A virus antigen only vaccine product"
        },
        "site": {
          "coding": [
            {
              "code": "244979005",
              "system": "http://snomed.info/sct",
              "display": "Entire muscle of upper arm"
            }
          ],
          "text": "Entire muscle of upper arm"
        },
        "route": {
          "coding": [
            {
              "code": "78421000",
              "system": "http://snomed.info/sct",
              "display": "Intramuscular route"
            }
          ],
          "text": "Intramuscular route"
        },
        "text": {
          "status": "generated",
          "div": "<div xmlns=\"http://www.w3.org/1999/xhtml\"><table class=\"hl7__ips\"><tr><td>Hepatitis A virus antigen only vaccine product</td><td><span class=\"nb\">28-Feb-2017</span></td></tr></table></div>"
        },
        "status": "completed",
        "patient": {
          "reference": "urn:uuid:e9601f38-dd31-4dfd-94b1-40708cd75e1c",
          "display": "Lorelei Dima"
        },
        "occurrenceDateTime": "2017-02-28",
        "lotNumber": "YU-DlB1PLI",
        "expirationDate": "2017-09-05"
      }
    },
    {
      "fullUrl": "urn:uuid:fb33e71a-a5aa-4421-ab76-c8ed12e6365e",
      "resource": {
        "resourceType": "Immunization",
        "id": "fb33e71a-a5aa-4421-ab76-c8ed12e6365e",
        "meta": {
          "profile": [
            "http://hl7.org/fhir/uv/ips/StructureDefinition/Immunization-uv-ips"
          ]
        },
        "vaccineCode": {
          "coding": [
            {
              "code": "777725002",
              "system": "http://snomed.info/sct",
              "display": "Vaccine product containing only Clostridium tetani toxoid antigen adsorbed"
            },
            {
              "code": "J07AM51",
              "system": "http://www.whocc.no/atc",
              "display": "Diphtheria-tetanus vaccines, adult type"
            }
          ],
          "text": "Clostridium tetani toxoid antigen adsorbed only vaccine product"
        },
        "site": {
          "coding": [
            {
              "code": "244979005",
              "system": "http://snomed.info/sct",
              "display": "Entire muscle of upper arm"
            }
          ],
          "text": "Entire muscle of upper arm"
        },
        "route": {
          "coding": [
            {
              "code": "78421000",
              "system": "http://snomed.info/sct",
              "display": "Intramuscular route"
            }
          ],
          "text": "Intramuscular route"
        },
        "text": {
          "status": "generated",
          "div": "<div xmlns=\"http://www.w3.org/1999/xhtml\"><table class=\"hl7__ips\"><tr><td>Clostridium tetani toxoid antigen adsorbed only vaccine product</td><td><span class=\"nb\">28-Feb-2017</span></td></tr></table></div>"
        },
        "status": "completed",
        "patient": {
          "reference": "urn:uuid:e9601f38-dd31-4dfd-94b1-40708cd75e1c",
          "display": "Lorelei Dima"
        },
        "occurrenceDateTime": "2017-02-28",
        "lotNumber": "FM-jm0URh1aT",
        "expirationDate": "2017-09-13"
      }
    },
    {
      "fullUrl": "urn:uuid:f6f98e59-106c-4e30-92aa-f76fd17f9ce5",
      "resource": {
        "resourceType": "Procedure",
        "id": "f6f98e59-106c-4e30-92aa-f76fd17f9ce5",
        "meta": {
          "profile": [
            "http://hl7.org/fhir/uv/ips/StructureDefinition/Procedure-uv-ips"
          ]
        },
        "code": {
          "coding": [
            {
              "code": "133899007",
              "system": "http://snomed.info/sct",
              "display": "Postoperative care (regime/therapy)"
            }
          ],
          "text": "Postoperative care"
        },
        "text": {
          "status": "generated",
          "div": "<div xmlns=\"http://www.w3.org/1999/xhtml\"><table class=\"hl7__ips\"><tr><td>Postoperative care</td><td><span class=\"nb\">22-Apr-2022</span></td><td>-</td></tr></table></div>"
        },
        "status": "completed",
        "performedDateTime": "2022-04-22",
        "subject": {
          "reference": "urn:uuid:e9601f38-dd31-4dfd-94b1-40708cd75e1c",
          "display": "Lorelei Dima"
        }
      }
    },
    {
      "fullUrl": "urn:uuid:4f3f0fcb-06a3-4d1f-ac9c-b1d45ea6bf2a",
      "resource": {
        "resourceType": "Procedure",
        "id": "4f3f0fcb-06a3-4d1f-ac9c-b1d45ea6bf2a",
        "meta": {
          "profile": [
            "http://hl7.org/fhir/uv/ips/StructureDefinition/Procedure-uv-ips"
          ]
        },
        "code": {
          "coding": [
            {
              "code": "445912000",
              "system": "http://snomed.info/sct",
              "display": "Excision of fallopian tube and surgical removal of ectopic pregnancy"
            }
          ],
          "text": "Excision of fallopian tube and surgical removal of ectopic pregnancy"
        },
        "reasonCode": [
          {
            "coding": [
              {
                "code": "79586000",
                "system": "http://snomed.info/sct",
                "display": "Tubal pregnancy"
              }
            ]
          }
        ],
        "text": {
          "status": "generated",
          "div": "<div xmlns=\"http://www.w3.org/1999/xhtml\"><table class=\"hl7__ips\"><tr><td>Excision of fallopian tube and surgical removal of ectopic pregnancy</td><td><span class=\"nb\">19-Apr-2022</span></td><td>Tubal pregnancy</td></tr></table></div>"
        },
        "status": "completed",
        "performedDateTime": "2022-04-19",
        "subject": {
          "reference": "urn:uuid:e9601f38-dd31-4dfd-94b1-40708cd75e1c",
          "display": "Lorelei Dima"
        }
      }
    },
    {
      "fullUrl": "urn:uuid:ad68f581-255b-4d1e-89a1-f0ff5f0b536c",
      "resource": {
        "resourceType": "Procedure",
        "id": "ad68f581-255b-4d1e-89a1-f0ff5f0b536c",
        "meta": {
          "profile": [
            "http://hl7.org/fhir/uv/ips/StructureDefinition/Procedure-uv-ips"
          ]
        },
        "code": {
          "coding": [
            {
              "code": "710841007",
              "system": "http://snomed.info/sct",
              "display": "Assessment of anxiety (procedure)"
            }
          ],
          "text": "Assessment of anxiety"
        },
        "text": {
          "status": "generated",
          "div": "<div xmlns=\"http://www.w3.org/1999/xhtml\"><table class=\"hl7__ips\"><tr><td>Assessment of anxiety</td><td><span class=\"nb\">23-Mar-2022</span></td><td>-</td></tr></table></div>"
        },
        "status": "completed",
        "performedDateTime": "2022-03-23",
        "subject": {
          "reference": "urn:uuid:e9601f38-dd31-4dfd-94b1-40708cd75e1c",
          "display": "Lorelei Dima"
        }
      }
    },
    {
      "fullUrl": "urn:uuid:32593a82-cb75-4d71-b9cc-2c71b70a3595",
      "resource": {
        "resourceType": "Procedure",
        "id": "32593a82-cb75-4d71-b9cc-2c71b70a3595",
        "meta": {
          "profile": [
            "http://hl7.org/fhir/uv/ips/StructureDefinition/Procedure-uv-ips"
          ]
        },
        "code": {
          "coding": [
            {
              "code": "430193006",
              "system": "http://snomed.info/sct",
              "display": "Medication Reconciliation (procedure)"
            }
          ],
          "text": "Medication reconciliation"
        },
        "text": {
          "status": "generated",
          "div": "<div xmlns=\"http://www.w3.org/1999/xhtml\"><table class=\"hl7__ips\"><tr><td>Medication reconciliation</td><td><span class=\"nb\">22-Mar-2022</span></td><td>-</td></tr></table></div>"
        },
        "status": "completed",
        "performedDateTime": "2022-03-22",
        "subject": {
          "reference": "urn:uuid:e9601f38-dd31-4dfd-94b1-40708cd75e1c",
          "display": "Lorelei Dima"
        }
      }
    },
    {
      "fullUrl": "urn:uuid:2c0cb280-82ce-486a-bb29-660579dc7273",
      "resource": {
        "resourceType": "Procedure",
        "id": "2c0cb280-82ce-486a-bb29-660579dc7273",
        "meta": {
          "profile": [
            "http://hl7.org/fhir/uv/ips/StructureDefinition/Procedure-uv-ips"
          ]
        },
        "code": {
          "coding": [
            {
              "code": "710824005",
              "system": "http://snomed.info/sct",
              "display": "Assessment of health and social care needs (procedure)"
            }
          ],
          "text": "Assessment of health and social care needs"
        },
        "text": {
          "status": "generated",
          "div": "<div xmlns=\"http://www.w3.org/1999/xhtml\"><table class=\"hl7__ips\"><tr><td>Assessment of health and social care needs</td><td><span class=\"nb\">22-Mar-2022</span></td><td>-</td></tr></table></div>"
        },
        "status": "completed",
        "performedDateTime": "2022-03-22",
        "subject": {
          "reference": "urn:uuid:e9601f38-dd31-4dfd-94b1-40708cd75e1c",
          "display": "Lorelei Dima"
        }
      }
    },
    {
      "fullUrl": "urn:uuid:51bddb84-43ed-4964-b301-9d54dabdb0f4",
      "resource": {
        "resourceType": "AllergyIntolerance",
        "id": "51bddb84-43ed-4964-b301-9d54dabdb0f4",
        "meta": {
          "profile": [
            "http://hl7.eu/fhir/base/StructureDefinition/allergyIntolerance-eu-core"
          ]
        },
        "code": {
          "text": ""
        },
        "clinicalStatus": {
          "coding": [
            {
              "code": "active",
              "system": "http://terminology.hl7.org/CodeSystem/allergyintolerance-clinical"
            }
          ]
        },
        "text": {
          "status": "generated",
          "div": "<div xmlns=\"http://www.w3.org/1999/xhtml\"><table class=\"hl7__ips\"><tr><th>Allergy/Intolerance</th><th>Onset Date</th><th>Status</th><th>Type</th><th>Reaction</th></tr><tr><td></td><td>?</td><td>active</td><td>?</td><td></td></tr></table></div>"
        },
        "verificationStatus": {
          "coding": [
            {
              "code": "confirmed",
              "system": "http://terminology.hl7.org/CodeSystem/allergyintolerance-verification"
            }
          ]
        },
        "patient": {
          "reference": "urn:uuid:e9601f38-dd31-4dfd-94b1-40708cd75e1c",
          "display": "Lorelei Dima"
        },
        "_onsetDateTime": {
          "extension": [
            {
              "url": "http://hl7.org/fhir/StructureDefinition/data-absent-reason",
              "valueCode": "unknown"
            }
          ]
        }
      }
    },
    {
      "fullUrl": "urn:uuid:d6b50afd-285f-4bdd-9244-f44ea5d7d84b",
      "resource": {
        "resourceType": "CarePlan",
        "id": "d6b50afd-285f-4bdd-9244-f44ea5d7d84b",
        "category": [
          {
            "coding": [
              {
                "code": "assess-plan",
                "system": "http://terminology.hl7.org/CodeSystem/care-plan-category",
                "display": "Assessment and Plan"
              }
            ]
          }
        ],
        "activity": [
          {
            "detail": {
              "code": {
                "coding": [
                  {
                    "code": "443402002",
                    "system": "http://snomed.info/sct",
                    "display": "Lifestyle education regarding hypertension (procedure)"
                  }
                ]
              },
              "reasonCode": [
                {
                  "coding": [
                    {
                      "code": "59621000",
                      "system": "http://snomed.info/sct",
                      "display": "Essential hypertension (disorder)"
                    }
                  ]
                }
              ],
              "status": "unknown",
              "description": "Lifestyle education regarding hypertension",
              "kind": "Appointment"
            }
          }
        ],
        "period": {
          "start": "2010-01-19"
        },
        "goal": [
          {
            "reference": "urn:uuid:9429c2c1-0af7-42fe-b6cb-8c7c6d5385b5"
          }
        ],
        "text": {
          "status": "generated",
          "div": "<div xmlns=\"http://www.w3.org/1999/xhtml\"><table class=\"hl7__ips first25\"><tr><th>Active Planned Care / Goals</th><th>Start Date</th><th>Reason</th></tr><tr><td>Lifestyle education regarding hypertension</td><td><span class=\"nb\">19-Jan-2010</span></td><td>Essential hypertension (disorder)</td></tr><tr><td><ul><li>Increase patient knowledge about hypertension and recommended lifestyle changes to support blood pressure control</li></ul></td><td></td><td></td></tr></table></div>"
        },
        "status": "active",
        "intent": "plan",
        "subject": {
          "reference": "urn:uuid:e9601f38-dd31-4dfd-94b1-40708cd75e1c",
          "display": "Lorelei Dima"
        }
      }
    },
    {
      "fullUrl": "urn:uuid:abff7737-ddd3-4003-97b4-d20dea6437df",
      "resource": {
        "resourceType": "Observation",
        "id": "abff7737-ddd3-4003-97b4-d20dea6437df",
        "meta": {
          "profile": [
            "http://hl7.org/fhir/StructureDefinition/vitalsigns"
          ]
        },
        "category": [
          {
            "coding": [
              {
                "system": "http://terminology.hl7.org/CodeSystem/observation-category",
                "code": "vital-signs",
                "display": "Vital Signs"
              }
            ]
          }
        ],
        "valueQuantity": {
          "value": 148.2,
          "code": "cm",
          "unit": "cm"
        },
        "text": {
          "status": "generated",
          "div": "<div xmlns=\"http://www.w3.org/1999/xhtml\"><table class=\"hl7__ips\"><tr><th>Vital Sign</th><th>Date</th><th>Measurement</th></tr><tr><td>Body Height</td><td>15-Apr-2025</td><td>148.2 cm</td></tr></table></div>"
        },
        "status": "final",
        "code": {
          "coding": [
            {
              "code": "8302-2",
              "system": "http://loinc.org",
              "display": "Body Height"
            }
          ]
        },
        "subject": {
          "reference": "urn:uuid:e9601f38-dd31-4dfd-94b1-40708cd75e1c",
          "display": "Lorelei Dima"
        },
        "effectiveDateTime": "2025-04-15"
      }
    },
    {
      "fullUrl": "urn:uuid:16f1e4c9-d30d-4908-b87b-359844ca640b",
      "resource": {
        "resourceType": "Observation",
        "id": "16f1e4c9-d30d-4908-b87b-359844ca640b",
        "meta": {
          "profile": [
            "http://hl7.org/fhir/StructureDefinition/vitalsigns"
          ]
        },
        "category": [
          {
            "coding": [
              {
                "system": "http://terminology.hl7.org/CodeSystem/observation-category",
                "code": "vital-signs",
                "display": "Vital Signs"
              }
            ]
          }
        ],
        "valueQuantity": {
          "value": 2,
          "code": "{score}",
          "unit": "{score}"
        },
        "text": {
          "status": "generated",
          "div": "<div xmlns=\"http://www.w3.org/1999/xhtml\"><table class=\"hl7__ips\"><tr><th>Vital Sign</th><th>Date</th><th>Measurement</th></tr><tr><td>Pain severity - 0-10 verbal numeric rating [Score] - Reported</td><td>15-Apr-2025</td><td>2 {score}</td></tr></table></div>"
        },
        "status": "final",
        "code": {
          "coding": [
            {
              "code": "72514-3",
              "system": "http://loinc.org",
              "display": "Pain severity - 0-10 verbal numeric rating [Score] - Reported"
            }
          ]
        },
        "subject": {
          "reference": "urn:uuid:e9601f38-dd31-4dfd-94b1-40708cd75e1c",
          "display": "Lorelei Dima"
        },
        "effectiveDateTime": "2025-04-15"
      }
    },
    {
      "fullUrl": "urn:uuid:a33a9eee-dc44-4bf6-a032-33c20fe1eb2a",
      "resource": {
        "resourceType": "Observation",
        "id": "a33a9eee-dc44-4bf6-a032-33c20fe1eb2a",
        "meta": {
          "profile": [
            "http://hl7.org/fhir/StructureDefinition/vitalsigns"
          ]
        },
        "category": [
          {
            "coding": [
              {
                "system": "http://terminology.hl7.org/CodeSystem/observation-category",
                "code": "vital-signs",
                "display": "Vital Signs"
              }
            ]
          }
        ],
        "valueQuantity": {
          "value": 60.2,
          "code": "kg",
          "unit": "kg"
        },
        "text": {
          "status": "generated",
          "div": "<div xmlns=\"http://www.w3.org/1999/xhtml\"><table class=\"hl7__ips\"><tr><th>Vital Sign</th><th>Date</th><th>Measurement</th></tr><tr><td>Body Weight</td><td>15-Apr-2025</td><td>60.2 kg</td></tr></table></div>"
        },
        "status": "final",
        "code": {
          "coding": [
            {
              "code": "29463-7",
              "system": "http://loinc.org",
              "display": "Body Weight"
            }
          ]
        },
        "subject": {
          "reference": "urn:uuid:e9601f38-dd31-4dfd-94b1-40708cd75e1c",
          "display": "Lorelei Dima"
        },
        "effectiveDateTime": "2025-04-15"
      }
    },
    {
      "fullUrl": "urn:uuid:bc386d02-5610-4b62-af0d-782aa90fd60b",
      "resource": {
        "resourceType": "Observation",
        "id": "bc386d02-5610-4b62-af0d-782aa90fd60b",
        "meta": {
          "profile": [
            "http://hl7.org/fhir/StructureDefinition/vitalsigns"
          ]
        },
        "category": [
          {
            "coding": [
              {
                "system": "http://terminology.hl7.org/CodeSystem/observation-category",
                "code": "vital-signs",
                "display": "Vital Signs"
              }
            ]
          }
        ],
        "valueQuantity": {
          "value": 27.4,
          "code": "kg/m2",
          "unit": "kg/m2"
        },
        "text": {
          "status": "generated",
          "div": "<div xmlns=\"http://www.w3.org/1999/xhtml\"><table class=\"hl7__ips\"><tr><th>Vital Sign</th><th>Date</th><th>Measurement</th></tr><tr><td>Body mass index (BMI) [Ratio]</td><td>15-Apr-2025</td><td>27.4 kg/m2</td></tr></table></div>"
        },
        "status": "final",
        "code": {
          "coding": [
            {
              "code": "39156-5",
              "system": "http://loinc.org",
              "display": "Body mass index (BMI) [Ratio]"
            }
          ]
        },
        "subject": {
          "reference": "urn:uuid:e9601f38-dd31-4dfd-94b1-40708cd75e1c",
          "display": "Lorelei Dima"
        },
        "effectiveDateTime": "2025-04-15"
      }
    },
    {
      "fullUrl": "urn:uuid:99b5dfa9-3d4d-4abf-b658-b69e951d30b1",
      "resource": {
        "resourceType": "Observation",
        "id": "99b5dfa9-3d4d-4abf-b658-b69e951d30b1",
        "meta": {
          "profile": [
            "http://hl7.org/fhir/StructureDefinition/vitalsigns"
          ]
        },
        "category": [
          {
            "coding": [
              {
                "system": "http://terminology.hl7.org/CodeSystem/observation-category",
                "code": "vital-signs",
                "display": "Vital Signs"
              }
            ]
          }
        ],
        "valueQuantity": {
          "value": 101,
          "code": "mm[Hg]",
          "unit": "mm[Hg]"
        },
        "text": {
          "status": "generated",
          "div": "<div xmlns=\"http://www.w3.org/1999/xhtml\"><table class=\"hl7__ips\"><tr><th>Vital Sign</th><th>Date</th><th>Measurement</th></tr><tr><td>Diastolic Blood Pressure</td><td>15-Apr-2025</td><td>101 mm[Hg]</td></tr></table></div>"
        },
        "status": "final",
        "code": {
          "coding": [
            {
              "code": "8462-4",
              "system": "http://loinc.org",
              "display": "Diastolic Blood Pressure"
            }
          ]
        },
        "subject": {
          "reference": "urn:uuid:e9601f38-dd31-4dfd-94b1-40708cd75e1c",
          "display": "Lorelei Dima"
        },
        "effectiveDateTime": "2025-04-15"
      }
    },
    {
      "fullUrl": "urn:uuid:fd1f4668-3609-4efa-9832-bb6ee194f58e",
      "resource": {
        "resourceType": "Observation",
        "id": "fd1f4668-3609-4efa-9832-bb6ee194f58e",
        "meta": {
          "profile": [
            "http://hl7.org/fhir/StructureDefinition/vitalsigns"
          ]
        },
        "category": [
          {
            "coding": [
              {
                "system": "http://terminology.hl7.org/CodeSystem/observation-category",
                "code": "vital-signs",
                "display": "Vital Signs"
              }
            ]
          }
        ],
        "valueQuantity": {
          "value": 130,
          "code": "mm[Hg]",
          "unit": "mm[Hg]"
        },
        "text": {
          "status": "generated",
          "div": "<div xmlns=\"http://www.w3.org/1999/xhtml\"><table class=\"hl7__ips\"><tr><th>Vital Sign</th><th>Date</th><th>Measurement</th></tr><tr><td>Systolic Blood Pressure</td><td>15-Apr-2025</td><td>130 mm[Hg]</td></tr></table></div>"
        },
        "status": "final",
        "code": {
          "coding": [
            {
              "code": "8480-6",
              "system": "http://loinc.org",
              "display": "Systolic Blood Pressure"
            }
          ]
        },
        "subject": {
          "reference": "urn:uuid:e9601f38-dd31-4dfd-94b1-40708cd75e1c",
          "display": "Lorelei Dima"
        },
        "effectiveDateTime": "2025-04-15"
      }
    },
    {
      "fullUrl": "urn:uuid:c6a19095-654a-46ba-b2d9-98b9cb37f8c8",
      "resource": {
        "resourceType": "Observation",
        "id": "c6a19095-654a-46ba-b2d9-98b9cb37f8c8",
        "meta": {
          "profile": [
            "http://hl7.org/fhir/StructureDefinition/vitalsigns"
          ]
        },
        "category": [
          {
            "coding": [
              {
                "system": "http://terminology.hl7.org/CodeSystem/observation-category",
                "code": "vital-signs",
                "display": "Vital Signs"
              }
            ]
          }
        ],
        "valueQuantity": {
          "value": 98,
          "code": "/min",
          "unit": "/min"
        },
        "text": {
          "status": "generated",
          "div": "<div xmlns=\"http://www.w3.org/1999/xhtml\"><table class=\"hl7__ips\"><tr><th>Vital Sign</th><th>Date</th><th>Measurement</th></tr><tr><td>Heart rate</td><td>15-Apr-2025</td><td>98 /min</td></tr></table></div>"
        },
        "status": "final",
        "code": {
          "coding": [
            {
              "code": "8867-4",
              "system": "http://loinc.org",
              "display": "Heart rate"
            }
          ]
        },
        "subject": {
          "reference": "urn:uuid:e9601f38-dd31-4dfd-94b1-40708cd75e1c",
          "display": "Lorelei Dima"
        },
        "effectiveDateTime": "2025-04-15"
      }
    },
    {
      "fullUrl": "urn:uuid:782b5a14-296d-4d29-8258-86b4f7e3574f",
      "resource": {
        "resourceType": "Observation",
        "id": "782b5a14-296d-4d29-8258-86b4f7e3574f",
        "meta": {
          "profile": [
            "http://hl7.org/fhir/StructureDefinition/vitalsigns"
          ]
        },
        "category": [
          {
            "coding": [
              {
                "system": "http://terminology.hl7.org/CodeSystem/observation-category",
                "code": "vital-signs",
                "display": "Vital Signs"
              }
            ]
          }
        ],
        "valueQuantity": {
          "value": 16,
          "code": "/min",
          "unit": "/min"
        },
        "text": {
          "status": "generated",
          "div": "<div xmlns=\"http://www.w3.org/1999/xhtml\"><table class=\"hl7__ips\"><tr><th>Vital Sign</th><th>Date</th><th>Measurement</th></tr><tr><td>Respiratory rate</td><td>15-Apr-2025</td><td>16 /min</td></tr></table></div>"
        },
        "status": "final",
        "code": {
          "coding": [
            {
              "code": "9279-1",
              "system": "http://loinc.org",
              "display": "Respiratory rate"
            }
          ]
        },
        "subject": {
          "reference": "urn:uuid:e9601f38-dd31-4dfd-94b1-40708cd75e1c",
          "display": "Lorelei Dima"
        },
        "effectiveDateTime": "2025-04-15"
      }
    },
    {
      "fullUrl": "urn:uuid:e92c0e4f-e382-4f47-994f-14b209767443",
      "resource": {
        "resourceType": "Observation",
        "id": "e92c0e4f-e382-4f47-994f-14b209767443",
        "meta": {
          "profile": [
            "http://hl7.org/fhir/StructureDefinition/vitalsigns"
          ]
        },
        "category": [
          {
            "coding": [
              {
                "system": "http://terminology.hl7.org/CodeSystem/observation-category",
                "code": "vital-signs",
                "display": "Vital Signs"
              }
            ]
          }
        ],
        "valueQuantity": {
          "value": 148.2,
          "code": "cm",
          "unit": "cm"
        },
        "text": {
          "status": "generated",
          "div": "<div xmlns=\"http://www.w3.org/1999/xhtml\"><table class=\"hl7__ips\"><tr><th>Vital Sign</th><th>Date</th><th>Measurement</th></tr><tr><td>Body Height</td><td>09-Apr-2024</td><td>148.2 cm</td></tr></table></div>"
        },
        "status": "final",
        "code": {
          "coding": [
            {
              "code": "8302-2",
              "system": "http://loinc.org",
              "display": "Body Height"
            }
          ]
        },
        "subject": {
          "reference": "urn:uuid:e9601f38-dd31-4dfd-94b1-40708cd75e1c",
          "display": "Lorelei Dima"
        },
        "effectiveDateTime": "2024-04-09"
      }
    },
    {
      "fullUrl": "urn:uuid:9076686c-5ad7-4202-a005-86798f1d1796",
      "resource": {
        "resourceType": "Observation",
        "id": "9076686c-5ad7-4202-a005-86798f1d1796",
        "meta": {
          "profile": [
            "http://hl7.org/fhir/StructureDefinition/vitalsigns"
          ]
        },
        "category": [
          {
            "coding": [
              {
                "system": "http://terminology.hl7.org/CodeSystem/observation-category",
                "code": "vital-signs",
                "display": "Vital Signs"
              }
            ]
          }
        ],
        "valueQuantity": {
          "value": 1,
          "code": "{score}",
          "unit": "{score}"
        },
        "text": {
          "status": "generated",
          "div": "<div xmlns=\"http://www.w3.org/1999/xhtml\"><table class=\"hl7__ips\"><tr><th>Vital Sign</th><th>Date</th><th>Measurement</th></tr><tr><td>Pain severity - 0-10 verbal numeric rating [Score] - Reported</td><td>09-Apr-2024</td><td>1 {score}</td></tr></table></div>"
        },
        "status": "final",
        "code": {
          "coding": [
            {
              "code": "72514-3",
              "system": "http://loinc.org",
              "display": "Pain severity - 0-10 verbal numeric rating [Score] - Reported"
            }
          ]
        },
        "subject": {
          "reference": "urn:uuid:e9601f38-dd31-4dfd-94b1-40708cd75e1c",
          "display": "Lorelei Dima"
        },
        "effectiveDateTime": "2024-04-09"
      }
    },
    {
      "fullUrl": "urn:uuid:67c30be0-400f-4d91-b2c0-762d8765bc95",
      "resource": {
        "resourceType": "Observation",
        "id": "67c30be0-400f-4d91-b2c0-762d8765bc95",
        "meta": {
          "profile": [
            "http://hl7.org/fhir/StructureDefinition/vitalsigns"
          ]
        },
        "category": [
          {
            "coding": [
              {
                "system": "http://terminology.hl7.org/CodeSystem/observation-category",
                "code": "vital-signs",
                "display": "Vital Signs"
              }
            ]
          }
        ],
        "valueQuantity": {
          "value": 60.2,
          "code": "kg",
          "unit": "kg"
        },
        "text": {
          "status": "generated",
          "div": "<div xmlns=\"http://www.w3.org/1999/xhtml\"><table class=\"hl7__ips\"><tr><th>Vital Sign</th><th>Date</th><th>Measurement</th></tr><tr><td>Body Weight</td><td>09-Apr-2024</td><td>60.2 kg</td></tr></table></div>"
        },
        "status": "final",
        "code": {
          "coding": [
            {
              "code": "29463-7",
              "system": "http://loinc.org",
              "display": "Body Weight"
            }
          ]
        },
        "subject": {
          "reference": "urn:uuid:e9601f38-dd31-4dfd-94b1-40708cd75e1c",
          "display": "Lorelei Dima"
        },
        "effectiveDateTime": "2024-04-09"
      }
    },
    {
      "fullUrl": "urn:uuid:a2c7008b-d185-41a4-935e-ff0e4664a583",
      "resource": {
        "resourceType": "Observation",
        "id": "a2c7008b-d185-41a4-935e-ff0e4664a583",
        "meta": {
          "profile": [
            "http://hl7.org/fhir/StructureDefinition/vitalsigns"
          ]
        },
        "category": [
          {
            "coding": [
              {
                "system": "http://terminology.hl7.org/CodeSystem/observation-category",
                "code": "vital-signs",
                "display": "Vital Signs"
              }
            ]
          }
        ],
        "valueQuantity": {
          "value": 27.4,
          "code": "kg/m2",
          "unit": "kg/m2"
        },
        "text": {
          "status": "generated",
          "div": "<div xmlns=\"http://www.w3.org/1999/xhtml\"><table class=\"hl7__ips\"><tr><th>Vital Sign</th><th>Date</th><th>Measurement</th></tr><tr><td>Body mass index (BMI) [Ratio]</td><td>09-Apr-2024</td><td>27.4 kg/m2</td></tr></table></div>"
        },
        "status": "final",
        "code": {
          "coding": [
            {
              "code": "39156-5",
              "system": "http://loinc.org",
              "display": "Body mass index (BMI) [Ratio]"
            }
          ]
        },
        "subject": {
          "reference": "urn:uuid:e9601f38-dd31-4dfd-94b1-40708cd75e1c",
          "display": "Lorelei Dima"
        },
        "effectiveDateTime": "2024-04-09"
      }
    },
    {
      "fullUrl": "urn:uuid:83b6fd84-53aa-4e76-aedc-fc07cd32b3f5",
      "resource": {
        "resourceType": "Observation",
        "id": "83b6fd84-53aa-4e76-aedc-fc07cd32b3f5",
        "meta": {
          "profile": [
            "http://hl7.org/fhir/StructureDefinition/vitalsigns"
          ]
        },
        "category": [
          {
            "coding": [
              {
                "system": "http://terminology.hl7.org/CodeSystem/observation-category",
                "code": "vital-signs",
                "display": "Vital Signs"
              }
            ]
          }
        ],
        "valueQuantity": {
          "value": 102,
          "code": "mm[Hg]",
          "unit": "mm[Hg]"
        },
        "text": {
          "status": "generated",
          "div": "<div xmlns=\"http://www.w3.org/1999/xhtml\"><table class=\"hl7__ips\"><tr><th>Vital Sign</th><th>Date</th><th>Measurement</th></tr><tr><td>Diastolic Blood Pressure</td><td>09-Apr-2024</td><td>102 mm[Hg]</td></tr></table></div>"
        },
        "status": "final",
        "code": {
          "coding": [
            {
              "code": "8462-4",
              "system": "http://loinc.org",
              "display": "Diastolic Blood Pressure"
            }
          ]
        },
        "subject": {
          "reference": "urn:uuid:e9601f38-dd31-4dfd-94b1-40708cd75e1c",
          "display": "Lorelei Dima"
        },
        "effectiveDateTime": "2024-04-09"
      }
    },
    {
      "fullUrl": "urn:uuid:3798c3c2-c01b-4504-a23a-e8d5628c9847",
      "resource": {
        "resourceType": "Observation",
        "id": "3798c3c2-c01b-4504-a23a-e8d5628c9847",
        "meta": {
          "profile": [
            "http://hl7.org/fhir/StructureDefinition/vitalsigns"
          ]
        },
        "category": [
          {
            "coding": [
              {
                "system": "http://terminology.hl7.org/CodeSystem/observation-category",
                "code": "vital-signs",
                "display": "Vital Signs"
              }
            ]
          }
        ],
        "valueQuantity": {
          "value": 126,
          "code": "mm[Hg]",
          "unit": "mm[Hg]"
        },
        "text": {
          "status": "generated",
          "div": "<div xmlns=\"http://www.w3.org/1999/xhtml\"><table class=\"hl7__ips\"><tr><th>Vital Sign</th><th>Date</th><th>Measurement</th></tr><tr><td>Systolic Blood Pressure</td><td>09-Apr-2024</td><td>126 mm[Hg]</td></tr></table></div>"
        },
        "status": "final",
        "code": {
          "coding": [
            {
              "code": "8480-6",
              "system": "http://loinc.org",
              "display": "Systolic Blood Pressure"
            }
          ]
        },
        "subject": {
          "reference": "urn:uuid:e9601f38-dd31-4dfd-94b1-40708cd75e1c",
          "display": "Lorelei Dima"
        },
        "effectiveDateTime": "2024-04-09"
      }
    },
    {
      "fullUrl": "urn:uuid:6eb1515f-6759-43a2-83fd-9955e00031b6",
      "resource": {
        "resourceType": "Observation",
        "id": "6eb1515f-6759-43a2-83fd-9955e00031b6",
        "meta": {
          "profile": [
            "http://hl7.org/fhir/StructureDefinition/vitalsigns"
          ]
        },
        "category": [
          {
            "coding": [
              {
                "system": "http://terminology.hl7.org/CodeSystem/observation-category",
                "code": "vital-signs",
                "display": "Vital Signs"
              }
            ]
          }
        ],
        "valueQuantity": {
          "value": 77,
          "code": "/min",
          "unit": "/min"
        },
        "text": {
          "status": "generated",
          "div": "<div xmlns=\"http://www.w3.org/1999/xhtml\"><table class=\"hl7__ips\"><tr><th>Vital Sign</th><th>Date</th><th>Measurement</th></tr><tr><td>Heart rate</td><td>09-Apr-2024</td><td>77 /min</td></tr></table></div>"
        },
        "status": "final",
        "code": {
          "coding": [
            {
              "code": "8867-4",
              "system": "http://loinc.org",
              "display": "Heart rate"
            }
          ]
        },
        "subject": {
          "reference": "urn:uuid:e9601f38-dd31-4dfd-94b1-40708cd75e1c",
          "display": "Lorelei Dima"
        },
        "effectiveDateTime": "2024-04-09"
      }
    },
    {
      "fullUrl": "urn:uuid:41ce5210-8aa3-4656-b7df-f7c21c0913ef",
      "resource": {
        "resourceType": "Observation",
        "id": "41ce5210-8aa3-4656-b7df-f7c21c0913ef",
        "meta": {
          "profile": [
            "http://hl7.org/fhir/StructureDefinition/vitalsigns"
          ]
        },
        "category": [
          {
            "coding": [
              {
                "system": "http://terminology.hl7.org/CodeSystem/observation-category",
                "code": "vital-signs",
                "display": "Vital Signs"
              }
            ]
          }
        ],
        "valueQuantity": {
          "value": 14,
          "code": "/min",
          "unit": "/min"
        },
        "text": {
          "status": "generated",
          "div": "<div xmlns=\"http://www.w3.org/1999/xhtml\"><table class=\"hl7__ips\"><tr><th>Vital Sign</th><th>Date</th><th>Measurement</th></tr><tr><td>Respiratory rate</td><td>09-Apr-2024</td><td>14 /min</td></tr></table></div>"
        },
        "status": "final",
        "code": {
          "coding": [
            {
              "code": "9279-1",
              "system": "http://loinc.org",
              "display": "Respiratory rate"
            }
          ]
        },
        "subject": {
          "reference": "urn:uuid:e9601f38-dd31-4dfd-94b1-40708cd75e1c",
          "display": "Lorelei Dima"
        },
        "effectiveDateTime": "2024-04-09"
      }
    },
    {
      "fullUrl": "urn:uuid:0bc6682f-8fab-498d-859e-db427e30a15e",
      "resource": {
        "resourceType": "Observation",
        "id": "0bc6682f-8fab-498d-859e-db427e30a15e",
        "meta": {
          "profile": [
            "http://hl7.eu/fhir/laboratory/StructureDefinition/Observation-resultslab-eu-lab"
          ]
        },
        "performer": [
          {
            "display": "The Central European Lab"
          }
        ],
        "category": [
          {
            "coding": [
              {
                "system": "http://terminology.hl7.org/CodeSystem/observation-category",
                "code": "laboratory"
              }
            ]
          }
        ],
        "code": {
          "coding": [
            {
              "code": "2093-3",
              "system": "http://loinc.org",
              "display": "Cholesterol [Mass/volume] in Serum or Plasma"
            }
          ],
          "text": "Cholesterol [Mass/volume] in Serum or Plasma"
        },
        "valueQuantity": {
          "system": "http://unitsofmeasure.org",
          "value": 213.4,
          "unit": "mg/dL",
          "code": "mg/dL"
        },
        "referenceRange": [
          {
            "low": {
              "value": 125,
              "code": "mg/dL",
              "system": "http://unitsofmeasure.org"
            }
          },
          {
            "high": {
              "value": 200,
              "code": "mg/dL",
              "system": "http://unitsofmeasure.org"
            }
          }
        ],
        "interpretation": [
          {
            "coding": [
              {
                "code": "H",
                "system": "http://terminology.hl7.org/CodeSystem/v3-ObservationInterpretation",
                "display": "High"
              }
            ]
          }
        ],
        "text": {
          "status": "generated",
          "div": "<div xmlns=\"http://www.w3.org/1999/xhtml\"><table class=\"hl7__eu__lab__report\"><tr><th>Test</th><th>16-Apr-2025</th><th>Reference&#xA0;Range</th><th>Unit</th></tr><tr><td>Cholesterol [Mass/volume] in Serum or Plasma</td><td>213.4</td><td>125 - 200</td><td>H</td><td>mg/dL</td></tr></table></div>"
        },
        "status": "final",
        "subject": {
          "reference": "urn:uuid:e9601f38-dd31-4dfd-94b1-40708cd75e1c",
          "display": "Lorelei Dima"
        },
        "effectiveDateTime": "2025-04-15T22:56:14Z"
      }
    },
    {
      "fullUrl": "urn:uuid:a676d504-14c9-4ff3-a456-e58548ff6bbc",
      "resource": {
        "resourceType": "Observation",
        "id": "a676d504-14c9-4ff3-a456-e58548ff6bbc",
        "meta": {
          "profile": [
            "http://hl7.eu/fhir/laboratory/StructureDefinition/Observation-resultslab-eu-lab"
          ]
        },
        "performer": [
          {
            "display": "The Central European Lab"
          }
        ],
        "category": [
          {
            "coding": [
              {
                "system": "http://terminology.hl7.org/CodeSystem/observation-category",
                "code": "laboratory"
              }
            ]
          }
        ],
        "code": {
          "coding": [
            {
              "code": "2571-8",
              "system": "http://loinc.org",
              "display": "Triglyceride [Mass/volume] in Serum or Plasma"
            }
          ],
          "text": "Triglyceride [Mass/volume] in Serum or Plasma"
        },
        "valueQuantity": {
          "system": "http://unitsofmeasure.org",
          "value": 111,
          "unit": "mg/dL",
          "code": "mg/dL"
        },
        "referenceRange": [
          {
            "low": {
              "value": 35,
              "code": "mg/dL",
              "system": "http://unitsofmeasure.org"
            }
          },
          {
            "high": {
              "value": 150,
              "code": "mg/dL",
              "system": "http://unitsofmeasure.org"
            }
          }
        ],
        "text": {
          "status": "generated",
          "div": "<div xmlns=\"http://www.w3.org/1999/xhtml\"><table class=\"hl7__eu__lab__report\"><tr><th>Test</th><th>16-Apr-2025</th><th>Reference&#xA0;Range</th><th>Unit</th></tr><tr><td>Triglyceride [Mass/volume] in Serum or Plasma</td><td>111.0</td><td>35 - 150</td><td></td><td>mg/dL</td></tr></table></div>"
        },
        "status": "final",
        "subject": {
          "reference": "urn:uuid:e9601f38-dd31-4dfd-94b1-40708cd75e1c",
          "display": "Lorelei Dima"
        },
        "effectiveDateTime": "2025-04-15T22:56:14Z"
      }
    },
    {
      "fullUrl": "urn:uuid:2d4fadd2-00c3-467e-9e59-6f8c1c78c75a",
      "resource": {
        "resourceType": "Observation",
        "id": "2d4fadd2-00c3-467e-9e59-6f8c1c78c75a",
        "meta": {
          "profile": [
            "http://hl7.eu/fhir/laboratory/StructureDefinition/Observation-resultslab-eu-lab"
          ]
        },
        "performer": [
          {
            "display": "The Central European Lab"
          }
        ],
        "category": [
          {
            "coding": [
              {
                "system": "http://terminology.hl7.org/CodeSystem/observation-category",
                "code": "laboratory"
              }
            ]
          }
        ],
        "code": {
          "coding": [
            {
              "code": "18262-6",
              "system": "http://loinc.org",
              "display": "Cholesterol in LDL [Mass/volume] in Serum or Plasma by Direct assay"
            }
          ],
          "text": "Cholesterol in LDL [Mass/volume] in Serum or Plasma by Direct assay"
        },
        "valueQuantity": {
          "system": "http://unitsofmeasure.org",
          "value": 144.7,
          "unit": "mg/dL",
          "code": "mg/dL"
        },
        "referenceRange": [
          {
            "low": {
              "value": 0,
              "code": "mg/dL",
              "system": "http://unitsofmeasure.org"
            }
          },
          {
            "high": {
              "value": 130,
              "code": "mg/dL",
              "system": "http://unitsofmeasure.org"
            }
          }
        ],
        "interpretation": [
          {
            "coding": [
              {
                "code": "H",
                "system": "http://terminology.hl7.org/CodeSystem/v3-ObservationInterpretation",
                "display": "High"
              }
            ]
          }
        ],
        "text": {
          "status": "generated",
          "div": "<div xmlns=\"http://www.w3.org/1999/xhtml\"><table class=\"hl7__eu__lab__report\"><tr><th>Test</th><th>16-Apr-2025</th><th>Reference&#xA0;Range</th><th>Unit</th></tr><tr><td>Cholesterol in LDL [Mass/volume] in Serum or Plasma by Direct assay</td><td>144.7</td><td>0 - 130</td><td>H</td><td>mg/dL</td></tr></table></div>"
        },
        "status": "final",
        "subject": {
          "reference": "urn:uuid:e9601f38-dd31-4dfd-94b1-40708cd75e1c",
          "display": "Lorelei Dima"
        },
        "effectiveDateTime": "2025-04-15T22:56:14Z"
      }
    },
    {
      "fullUrl": "urn:uuid:05f15528-9d49-4509-a030-0824f1afecce",
      "resource": {
        "resourceType": "Observation",
        "id": "05f15528-9d49-4509-a030-0824f1afecce",
        "meta": {
          "profile": [
            "http://hl7.eu/fhir/laboratory/StructureDefinition/Observation-resultslab-eu-lab"
          ]
        },
        "performer": [
          {
            "display": "The Central European Lab"
          }
        ],
        "category": [
          {
            "coding": [
              {
                "system": "http://terminology.hl7.org/CodeSystem/observation-category",
                "code": "laboratory"
              }
            ]
          }
        ],
        "code": {
          "coding": [
            {
              "code": "2085-9",
              "system": "http://loinc.org",
              "display": "Cholesterol in HDL [Mass/volume] in Serum or Plasma"
            }
          ],
          "text": "Cholesterol in HDL [Mass/volume] in Serum or Plasma"
        },
        "valueQuantity": {
          "system": "http://unitsofmeasure.org",
          "value": 46.5,
          "unit": "mg/dL",
          "code": "mg/dL"
        },
        "referenceRange": [
          {
            "low": {
              "value": 40,
              "code": "mg/dL",
              "system": "http://unitsofmeasure.org"
            }
          },
          {
            "high": {
              "value": 100,
              "code": "mg/dL",
              "system": "http://unitsofmeasure.org"
            }
          }
        ],
        "text": {
          "status": "generated",
          "div": "<div xmlns=\"http://www.w3.org/1999/xhtml\"><table class=\"hl7__eu__lab__report\"><tr><th>Test</th><th>16-Apr-2025</th><th>Reference&#xA0;Range</th><th>Unit</th></tr><tr><td>Cholesterol in HDL [Mass/volume] in Serum or Plasma</td><td>46.5</td><td>40 - 100</td><td></td><td>mg/dL</td></tr></table></div>"
        },
        "status": "final",
        "subject": {
          "reference": "urn:uuid:e9601f38-dd31-4dfd-94b1-40708cd75e1c",
          "display": "Lorelei Dima"
        },
        "effectiveDateTime": "2025-04-15T22:56:14Z"
      }
    },
    {
      "fullUrl": "urn:uuid:7a533365-e7d1-4466-950f-6a69d5a1db3d",
      "resource": {
        "resourceType": "Observation",
        "id": "7a533365-e7d1-4466-950f-6a69d5a1db3d",
        "meta": {
          "profile": [
            "http://hl7.eu/fhir/laboratory/StructureDefinition/Observation-resultslab-eu-lab"
          ]
        },
        "performer": [
          {
            "display": "The Central European Lab"
          }
        ],
        "category": [
          {
            "coding": [
              {
                "system": "http://terminology.hl7.org/CodeSystem/observation-category",
                "code": "laboratory"
              }
            ]
          }
        ],
        "code": {
          "coding": [
            {
              "code": "6690-2",
              "system": "http://loinc.org",
              "display": "Leukocytes [#/volume] in Blood by Automated count"
            }
          ],
          "text": "Leukocytes [#/volume] in Blood by Automated count"
        },
        "valueQuantity": {
          "system": "http://unitsofmeasure.org",
          "value": 5.4,
          "unit": "10*3/uL",
          "code": "10*3/uL"
        },
        "referenceRange": [
          {
            "low": {
              "value": 3.4,
              "code": "10*3/uL",
              "system": "http://unitsofmeasure.org"
            }
          },
          {
            "high": {
              "value": 10.5,
              "code": "10*3/uL",
              "system": "http://unitsofmeasure.org"
            }
          }
        ],
        "text": {
          "status": "generated",
          "div": "<div xmlns=\"http://www.w3.org/1999/xhtml\"><table class=\"hl7__eu__lab__report\"><tr><th>Test</th><th>16-Apr-2025</th><th>Reference&#xA0;Range</th><th>Unit</th></tr><tr><td>Leukocytes [#/volume] in Blood by Automated count</td><td>5.4</td><td>3.4 - 10.5</td><td></td><td>10*3/uL</td></tr></table></div>"
        },
        "status": "final",
        "subject": {
          "reference": "urn:uuid:e9601f38-dd31-4dfd-94b1-40708cd75e1c",
          "display": "Lorelei Dima"
        },
        "effectiveDateTime": "2025-04-15T22:56:14Z"
      }
    },
    {
      "fullUrl": "urn:uuid:91be384f-1e13-4142-9555-d3163e9235f7",
      "resource": {
        "resourceType": "Observation",
        "id": "91be384f-1e13-4142-9555-d3163e9235f7",
        "meta": {
          "profile": [
            "http://hl7.eu/fhir/laboratory/StructureDefinition/Observation-resultslab-eu-lab"
          ]
        },
        "performer": [
          {
            "display": "The Central European Lab"
          }
        ],
        "category": [
          {
            "coding": [
              {
                "system": "http://terminology.hl7.org/CodeSystem/observation-category",
                "code": "laboratory"
              }
            ]
          }
        ],
        "code": {
          "coding": [
            {
              "code": "789-8",
              "system": "http://loinc.org",
              "display": "Erythrocytes [#/volume] in Blood by Automated count"
            }
          ],
          "text": "Erythrocytes [#/volume] in Blood by Automated count"
        },
        "valueQuantity": {
          "system": "http://unitsofmeasure.org",
          "value": 4.2,
          "unit": "10*6/uL",
          "code": "10*6/uL"
        },
        "referenceRange": [
          {
            "low": {
              "value": 4.8,
              "code": "10*6/uL",
              "system": "http://unitsofmeasure.org"
            }
          },
          {
            "high": {
              "value": 5.8,
              "code": "10*6/uL",
              "system": "http://unitsofmeasure.org"
            }
          }
        ],
        "interpretation": [
          {
            "coding": [
              {
                "code": "L",
                "system": "http://terminology.hl7.org/CodeSystem/v3-ObservationInterpretation",
                "display": "Low"
              }
            ]
          }
        ],
        "text": {
          "status": "generated",
          "div": "<div xmlns=\"http://www.w3.org/1999/xhtml\"><table class=\"hl7__eu__lab__report\"><tr><th>Test</th><th>16-Apr-2025</th><th>Reference&#xA0;Range</th><th>Unit</th></tr><tr><td>Erythrocytes [#/volume] in Blood by Automated count</td><td>4.2</td><td>4.8 - 5.8</td><td>L</td><td>10*6/uL</td></tr></table></div>"
        },
        "status": "final",
        "subject": {
          "reference": "urn:uuid:e9601f38-dd31-4dfd-94b1-40708cd75e1c",
          "display": "Lorelei Dima"
        },
        "effectiveDateTime": "2025-04-15T22:56:14Z"
      }
    },
    {
      "fullUrl": "urn:uuid:9e4f2abe-a182-4d9d-9cba-cca9feff9876",
      "resource": {
        "resourceType": "Observation",
        "id": "9e4f2abe-a182-4d9d-9cba-cca9feff9876",
        "meta": {
          "profile": [
            "http://hl7.eu/fhir/laboratory/StructureDefinition/Observation-resultslab-eu-lab"
          ]
        },
        "performer": [
          {
            "display": "The Central European Lab"
          }
        ],
        "category": [
          {
            "coding": [
              {
                "system": "http://terminology.hl7.org/CodeSystem/observation-category",
                "code": "laboratory"
              }
            ]
          }
        ],
        "code": {
          "coding": [
            {
              "code": "718-7",
              "system": "http://loinc.org",
              "display": "Hemoglobin [Mass/volume] in Blood"
            }
          ],
          "text": "Hemoglobin [Mass/volume] in Blood"
        },
        "valueQuantity": {
          "system": "http://unitsofmeasure.org",
          "value": 17.3,
          "unit": "g/dL",
          "code": "g/dL"
        },
        "referenceRange": [
          {
            "low": {
              "value": 12,
              "code": "g/dL",
              "system": "http://unitsofmeasure.org"
            }
          },
          {
            "high": {
              "value": 16,
              "code": "g/dL",
              "system": "http://unitsofmeasure.org"
            }
          }
        ],
        "interpretation": [
          {
            "coding": [
              {
                "code": "H",
                "system": "http://terminology.hl7.org/CodeSystem/v3-ObservationInterpretation",
                "display": "High"
              }
            ]
          }
        ],
        "text": {
          "status": "generated",
          "div": "<div xmlns=\"http://www.w3.org/1999/xhtml\"><table class=\"hl7__eu__lab__report\"><tr><th>Test</th><th>16-Apr-2025</th><th>Reference&#xA0;Range</th><th>Unit</th></tr><tr><td>Hemoglobin [Mass/volume] in Blood</td><td>17.3</td><td>12 - 16</td><td>H</td><td>g/dL</td></tr></table></div>"
        },
        "status": "final",
        "subject": {
          "reference": "urn:uuid:e9601f38-dd31-4dfd-94b1-40708cd75e1c",
          "display": "Lorelei Dima"
        },
        "effectiveDateTime": "2025-04-15T22:56:14Z"
      }
    },
    {
      "fullUrl": "urn:uuid:f759cbed-a510-404c-a821-b955851c1a69",
      "resource": {
        "resourceType": "Observation",
        "id": "f759cbed-a510-404c-a821-b955851c1a69",
        "meta": {
          "profile": [
            "http://hl7.eu/fhir/laboratory/StructureDefinition/Observation-resultslab-eu-lab"
          ]
        },
        "performer": [
          {
            "display": "The Central European Lab"
          }
        ],
        "category": [
          {
            "coding": [
              {
                "system": "http://terminology.hl7.org/CodeSystem/observation-category",
                "code": "laboratory"
              }
            ]
          }
        ],
        "code": {
          "coding": [
            {
              "code": "4544-3",
              "system": "http://loinc.org",
              "display": "Hematocrit [Volume Fraction] of Blood by Automated count"
            }
          ],
          "text": "Hematocrit [Volume Fraction] of Blood by Automated count"
        },
        "valueQuantity": {
          "system": "http://unitsofmeasure.org",
          "value": 48.2,
          "unit": "%",
          "code": "%"
        },
        "referenceRange": [
          {
            "low": {
              "value": 38,
              "code": "%",
              "system": "http://unitsofmeasure.org"
            }
          },
          {
            "high": {
              "value": 54,
              "code": "%",
              "system": "http://unitsofmeasure.org"
            }
          }
        ],
        "text": {
          "status": "generated",
          "div": "<div xmlns=\"http://www.w3.org/1999/xhtml\"><table class=\"hl7__eu__lab__report\"><tr><th>Test</th><th>16-Apr-2025</th><th>Reference&#xA0;Range</th><th>Unit</th></tr><tr><td>Hematocrit [Volume Fraction] of Blood by Automated count</td><td>48.2</td><td>38 - 54</td><td></td><td>%</td></tr></table></div>"
        },
        "status": "final",
        "subject": {
          "reference": "urn:uuid:e9601f38-dd31-4dfd-94b1-40708cd75e1c",
          "display": "Lorelei Dima"
        },
        "effectiveDateTime": "2025-04-15T22:56:14Z"
      }
    },
    {
      "fullUrl": "urn:uuid:02267a7e-64e4-469a-8598-cbc512be67f6",
      "resource": {
        "resourceType": "Observation",
        "id": "02267a7e-64e4-469a-8598-cbc512be67f6",
        "meta": {
          "profile": [
            "http://hl7.eu/fhir/laboratory/StructureDefinition/Observation-resultslab-eu-lab"
          ]
        },
        "performer": [
          {
            "display": "The Central European Lab"
          }
        ],
        "category": [
          {
            "coding": [
              {
                "system": "http://terminology.hl7.org/CodeSystem/observation-category",
                "code": "laboratory"
              }
            ]
          }
        ],
        "code": {
          "coding": [
            {
              "code": "787-2",
              "system": "http://loinc.org",
              "display": "MCV [Entitic volume] by Automated count"
            }
          ],
          "text": "MCV [Entitic volume] by Automated count"
        },
        "valueQuantity": {
          "system": "http://unitsofmeasure.org",
          "value": 88.7,
          "unit": "fL",
          "code": "fL"
        },
        "referenceRange": [
          {
            "low": {
              "value": 82,
              "code": "fL",
              "system": "http://unitsofmeasure.org"
            }
          },
          {
            "high": {
              "value": 98,
              "code": "fL",
              "system": "http://unitsofmeasure.org"
            }
          }
        ],
        "text": {
          "status": "generated",
          "div": "<div xmlns=\"http://www.w3.org/1999/xhtml\"><table class=\"hl7__eu__lab__report\"><tr><th>Test</th><th>16-Apr-2025</th><th>Reference&#xA0;Range</th><th>Unit</th></tr><tr><td>MCV [Entitic volume] by Automated count</td><td>88.7</td><td>82 - 98</td><td></td><td>fL</td></tr></table></div>"
        },
        "status": "final",
        "subject": {
          "reference": "urn:uuid:e9601f38-dd31-4dfd-94b1-40708cd75e1c",
          "display": "Lorelei Dima"
        },
        "effectiveDateTime": "2025-04-15T22:56:14Z"
      }
    },
    {
      "fullUrl": "urn:uuid:25fa437d-545e-451e-a9e6-8894b8937c01",
      "resource": {
        "resourceType": "Observation",
        "id": "25fa437d-545e-451e-a9e6-8894b8937c01",
        "meta": {
          "profile": [
            "http://hl7.eu/fhir/laboratory/StructureDefinition/Observation-resultslab-eu-lab"
          ]
        },
        "performer": [
          {
            "display": "The Central European Lab"
          }
        ],
        "category": [
          {
            "coding": [
              {
                "system": "http://terminology.hl7.org/CodeSystem/observation-category",
                "code": "laboratory"
              }
            ]
          }
        ],
        "code": {
          "coding": [
            {
              "code": "785-6",
              "system": "http://loinc.org",
              "display": "MCH [Entitic mass] by Automated count"
            }
          ],
          "text": "MCH [Entitic mass] by Automated count"
        },
        "valueQuantity": {
          "system": "http://unitsofmeasure.org",
          "value": 32.7,
          "unit": "pg",
          "code": "pg"
        },
        "referenceRange": [
          {
            "low": {
              "value": 27,
              "code": "pg",
              "system": "http://unitsofmeasure.org"
            }
          },
          {
            "high": {
              "value": 34,
              "code": "pg",
              "system": "http://unitsofmeasure.org"
            }
          }
        ],
        "text": {
          "status": "generated",
          "div": "<div xmlns=\"http://www.w3.org/1999/xhtml\"><table class=\"hl7__eu__lab__report\"><tr><th>Test</th><th>16-Apr-2025</th><th>Reference&#xA0;Range</th><th>Unit</th></tr><tr><td>MCH [Entitic mass] by Automated count</td><td>32.7</td><td>27 - 34</td><td></td><td>pg</td></tr></table></div>"
        },
        "status": "final",
        "subject": {
          "reference": "urn:uuid:e9601f38-dd31-4dfd-94b1-40708cd75e1c",
          "display": "Lorelei Dima"
        },
        "effectiveDateTime": "2025-04-15T22:56:14Z"
      }
    },
    {
      "fullUrl": "urn:uuid:9b9425ec-7668-4d76-98c8-79c1f39c16e8",
      "resource": {
        "resourceType": "Observation",
        "id": "9b9425ec-7668-4d76-98c8-79c1f39c16e8",
        "meta": {
          "profile": [
            "http://hl7.eu/fhir/laboratory/StructureDefinition/Observation-resultslab-eu-lab"
          ]
        },
        "performer": [
          {
            "display": "The Central European Lab"
          }
        ],
        "category": [
          {
            "coding": [
              {
                "system": "http://terminology.hl7.org/CodeSystem/observation-category",
                "code": "laboratory"
              }
            ]
          }
        ],
        "code": {
          "coding": [
            {
              "code": "786-4",
              "system": "http://loinc.org",
              "display": "MCHC [Mass/volume] by Automated count"
            }
          ],
          "text": "MCHC [Mass/volume] by Automated count"
        },
        "valueQuantity": {
          "system": "http://unitsofmeasure.org",
          "value": 34.3,
          "unit": "g/dL",
          "code": "g/dL"
        },
        "referenceRange": [
          {
            "low": {
              "value": 31,
              "code": "g/dL",
              "system": "http://unitsofmeasure.org"
            }
          },
          {
            "high": {
              "value": 35,
              "code": "g/dL",
              "system": "http://unitsofmeasure.org"
            }
          }
        ],
        "text": {
          "status": "generated",
          "div": "<div xmlns=\"http://www.w3.org/1999/xhtml\"><table class=\"hl7__eu__lab__report\"><tr><th>Test</th><th>16-Apr-2025</th><th>Reference&#xA0;Range</th><th>Unit</th></tr><tr><td>MCHC [Mass/volume] by Automated count</td><td>34.3</td><td>31 - 35</td><td></td><td>g/dL</td></tr></table></div>"
        },
        "status": "final",
        "subject": {
          "reference": "urn:uuid:e9601f38-dd31-4dfd-94b1-40708cd75e1c",
          "display": "Lorelei Dima"
        },
        "effectiveDateTime": "2025-04-15T22:56:14Z"
      }
    },
    {
      "fullUrl": "urn:uuid:dfc891e9-98d2-40a1-b8bb-b229257d0487",
      "resource": {
        "resourceType": "Observation",
        "id": "dfc891e9-98d2-40a1-b8bb-b229257d0487",
        "meta": {
          "profile": [
            "http://hl7.eu/fhir/laboratory/StructureDefinition/Observation-resultslab-eu-lab"
          ]
        },
        "performer": [
          {
            "display": "The Central European Lab"
          }
        ],
        "category": [
          {
            "coding": [
              {
                "system": "http://terminology.hl7.org/CodeSystem/observation-category",
                "code": "laboratory"
              }
            ]
          }
        ],
        "code": {
          "coding": [
            {
              "code": "21000-5",
              "system": "http://loinc.org",
              "display": "Erythrocyte distribution width [Entitic volume] by Automated count"
            }
          ],
          "text": "Erythrocyte distribution width [Entitic volume] by Automated count"
        },
        "valueQuantity": {
          "system": "http://unitsofmeasure.org",
          "value": 44.8,
          "unit": "fL",
          "code": "fL"
        },
        "referenceRange": [
          {
            "low": {
              "value": 36,
              "code": "fL",
              "system": "http://unitsofmeasure.org"
            }
          },
          {
            "high": {
              "value": 60,
              "code": "fL",
              "system": "http://unitsofmeasure.org"
            }
          }
        ],
        "text": {
          "status": "generated",
          "div": "<div xmlns=\"http://www.w3.org/1999/xhtml\"><table class=\"hl7__eu__lab__report\"><tr><th>Test</th><th>16-Apr-2025</th><th>Reference&#xA0;Range</th><th>Unit</th></tr><tr><td>Erythrocyte distribution width [Entitic volume] by Automated count</td><td>44.8</td><td>36 - 60</td><td></td><td>fL</td></tr></table></div>"
        },
        "status": "final",
        "subject": {
          "reference": "urn:uuid:e9601f38-dd31-4dfd-94b1-40708cd75e1c",
          "display": "Lorelei Dima"
        },
        "effectiveDateTime": "2025-04-15T22:56:14Z"
      }
    },
    {
      "fullUrl": "urn:uuid:5488d31a-67be-45d9-a51e-110ec6877cd7",
      "resource": {
        "resourceType": "Observation",
        "id": "5488d31a-67be-45d9-a51e-110ec6877cd7",
        "meta": {
          "profile": [
            "http://hl7.eu/fhir/laboratory/StructureDefinition/Observation-resultslab-eu-lab"
          ]
        },
        "performer": [
          {
            "display": "The Central European Lab"
          }
        ],
        "category": [
          {
            "coding": [
              {
                "system": "http://terminology.hl7.org/CodeSystem/observation-category",
                "code": "laboratory"
              }
            ]
          }
        ],
        "code": {
          "coding": [
            {
              "code": "777-3",
              "system": "http://loinc.org",
              "display": "Platelets [#/volume] in Blood by Automated count"
            }
          ],
          "text": "Platelets [#/volume] in Blood by Automated count"
        },
        "valueQuantity": {
          "system": "http://unitsofmeasure.org",
          "value": 261.8,
          "unit": "10*3/uL",
          "code": "10*3/uL"
        },
        "referenceRange": [
          {
            "low": {
              "value": 150,
              "code": "10*3/uL",
              "system": "http://unitsofmeasure.org"
            }
          },
          {
            "high": {
              "value": 350,
              "code": "10*3/uL",
              "system": "http://unitsofmeasure.org"
            }
          }
        ],
        "text": {
          "status": "generated",
          "div": "<div xmlns=\"http://www.w3.org/1999/xhtml\"><table class=\"hl7__eu__lab__report\"><tr><th>Test</th><th>16-Apr-2025</th><th>Reference&#xA0;Range</th><th>Unit</th></tr><tr><td>Platelets [#/volume] in Blood by Automated count</td><td>261.8</td><td>150 - 350</td><td></td><td>10*3/uL</td></tr></table></div>"
        },
        "status": "final",
        "subject": {
          "reference": "urn:uuid:e9601f38-dd31-4dfd-94b1-40708cd75e1c",
          "display": "Lorelei Dima"
        },
        "effectiveDateTime": "2025-04-15T22:56:14Z"
      }
    },
    {
      "fullUrl": "urn:uuid:3cd124f3-e6fd-4f86-a9fa-4ea6c30f0303",
      "resource": {
        "resourceType": "Observation",
        "id": "3cd124f3-e6fd-4f86-a9fa-4ea6c30f0303",
        "meta": {
          "profile": [
            "http://hl7.eu/fhir/laboratory/StructureDefinition/Observation-resultslab-eu-lab"
          ]
        },
        "performer": [
          {
            "display": "The Central European Lab"
          }
        ],
        "category": [
          {
            "coding": [
              {
                "system": "http://terminology.hl7.org/CodeSystem/observation-category",
                "code": "laboratory"
              }
            ]
          }
        ],
        "code": {
          "coding": [
            {
              "code": "32207-3",
              "system": "http://loinc.org",
              "display": "Platelet distribution width [Entitic volume] in Blood by Automated count"
            }
          ],
          "text": "Platelet distribution width [Entitic volume] in Blood by Automated count"
        },
        "valueQuantity": {
          "system": "http://unitsofmeasure.org",
          "value": 156.8,
          "unit": "fL",
          "code": "fL"
        },
        "referenceRange": [
          {
            "low": {
              "value": 11.6,
              "code": "fL",
              "system": "http://unitsofmeasure.org"
            }
          },
          {
            "high": {
              "value": 17.4,
              "code": "fL",
              "system": "http://unitsofmeasure.org"
            }
          }
        ],
        "interpretation": [
          {
            "coding": [
              {
                "code": "H",
                "system": "http://terminology.hl7.org/CodeSystem/v3-ObservationInterpretation",
                "display": "High"
              }
            ]
          }
        ],
        "text": {
          "status": "generated",
          "div": "<div xmlns=\"http://www.w3.org/1999/xhtml\"><table class=\"hl7__eu__lab__report\"><tr><th>Test</th><th>16-Apr-2025</th><th>Reference&#xA0;Range</th><th>Unit</th></tr><tr><td>Platelet distribution width [Entitic volume] in Blood by Automated count</td><td>156.8</td><td>11.6 - 17.4</td><td>H</td><td>fL</td></tr></table></div>"
        },
        "status": "final",
        "subject": {
          "reference": "urn:uuid:e9601f38-dd31-4dfd-94b1-40708cd75e1c",
          "display": "Lorelei Dima"
        },
        "effectiveDateTime": "2025-04-15T22:56:14Z"
      }
    },
    {
      "fullUrl": "urn:uuid:fcc72e86-4a2b-4054-8222-0fb4aee916a2",
      "resource": {
        "resourceType": "Observation",
        "id": "fcc72e86-4a2b-4054-8222-0fb4aee916a2",
        "meta": {
          "profile": [
            "http://hl7.eu/fhir/laboratory/StructureDefinition/Observation-resultslab-eu-lab"
          ]
        },
        "performer": [
          {
            "display": "The Central European Lab"
          }
        ],
        "category": [
          {
            "coding": [
              {
                "system": "http://terminology.hl7.org/CodeSystem/observation-category",
                "code": "laboratory"
              }
            ]
          }
        ],
        "code": {
          "coding": [
            {
              "code": "32623-1",
              "system": "http://loinc.org",
              "display": "Platelet mean volume [Entitic volume] in Blood by Automated count"
            }
          ],
          "text": "Platelet mean volume [Entitic volume] in Blood by Automated count"
        },
        "valueQuantity": {
          "system": "http://unitsofmeasure.org",
          "value": 10.1,
          "unit": "fL",
          "code": "fL"
        },
        "referenceRange": [
          {
            "low": {
              "value": 7.2,
              "code": "fL",
              "system": "http://unitsofmeasure.org"
            }
          },
          {
            "high": {
              "value": 13.5,
              "code": "fL",
              "system": "http://unitsofmeasure.org"
            }
          }
        ],
        "text": {
          "status": "generated",
          "div": "<div xmlns=\"http://www.w3.org/1999/xhtml\"><table class=\"hl7__eu__lab__report\"><tr><th>Test</th><th>16-Apr-2025</th><th>Reference&#xA0;Range</th><th>Unit</th></tr><tr><td>Platelet mean volume [Entitic volume] in Blood by Automated count</td><td>10.1</td><td>7.2 - 13.5</td><td></td><td>fL</td></tr></table></div>"
        },
        "status": "final",
        "subject": {
          "reference": "urn:uuid:e9601f38-dd31-4dfd-94b1-40708cd75e1c",
          "display": "Lorelei Dima"
        },
        "effectiveDateTime": "2025-04-15T22:56:14Z"
      }
    },
    {
      "fullUrl": "urn:uuid:6e180eac-53b7-49ae-9c98-49dedfc9bb19",
      "resource": {
        "resourceType": "Device",
        "id": "6e180eac-53b7-49ae-9c98-49dedfc9bb19",
        "deviceName": [
          {
            "name": "SYNDERAI Synthetic Generator",
            "type": "manufacturer-name"
          }
        ],
        "version": [
          {
            "value": "5.0"
          }
        ],
        "text": {
          "status": "generated",
          "div": "<div xmlns=\"http://www.w3.org/1999/xhtml\">SYNDERAI Synthetic Generator v5.0</div>"
        },
        "status": "active",
        "distinctIdentifier": "synderai-generator-50",
        "manufacturer": "SYNDERAI Project"
      }
    },
    {
      "fullUrl": "urn:uuid:62801c66-25c0-4f27-84ce-af3557a598c0",
      "resource": {
        "resourceType": "Provenance",
        "id": "62801c66-25c0-4f27-84ce-af3557a598c0",
        "target": [
          {
            "reference": "Patient/e9601f38-dd31-4dfd-94b1-40708cd75e1c"
          },
          {
            "reference": "Bundle/1ebcef10-28e2-4a9b-95dc-ab3aab1cc080"
          },
          {
            "reference": "Composition/9867c3d0-57b6-4cdf-b234-6406a87e787a"
          },
          {
            "reference": "PractitionerRole/173a33f8-9b4e-4833-8064-268fd2497058"
          },
          {
            "reference": "Organization/092fa2d1-3312-4715-b26f-5bcab5dd8ae3"
          },
          {
            "reference": "Practitioner/591013af-65f7-4dde-b3a4-289aab62a226"
          }
        ],
        "activity": {
          "text": "Synthetic Example Data Generation"
        },
        "policy": [
          "https://synderai.net/synderai-synthetic-data-policy"
        ],
        "agent": [
          {
            "type": {
              "text": "author"
            },
            "who": {
              "reference": "Device/6e180eac-53b7-49ae-9c98-49dedfc9bb19"
            }
          }
        ],
        "reason": [
          {
            "text": "Interoperability Testing and Training (non-clinical use)"
          }
        ],
        "text": {
          "status": "generated",
          "div": "<div xmlns=\"http://www.w3.org/1999/xhtml\">Provenance for SYNDERAI Synthetic Example Data Resource</div>"
        },
        "recorded": "2025-04-15T22:56:14Z"
      }
    }
  ],
  "type": "document",
  "timestamp": "2025-04-15T22:56:14Z"
}
