{
  "resourceType": "Bundle",
  "id": "e4a5e4f9-335d-4218-9728-b2aefd3a0357",
  "meta": {
    "profile": [
      "http://hl7.eu/fhir/eps/StructureDefinition/bundle-eu-eps"
    ]
  },
  "identifier": {
    "assigner": {
      "display": "HL7 Europe"
    },
    "system": "urn:oid:2.16.840.1.113883.2.51.999",
    "value": "a2b4a1e4-4610-4a2a-aac2-e8362ad1f3f1"
  },
  "entry": [
    {
      "fullUrl": "urn:uuid:6c04a94c-82e4-47ec-a163-bd159ef2501a",
      "resource": {
        "resourceType": "Composition",
        "id": "6c04a94c-82e4-47ec-a163-bd159ef2501a",
        "meta": {
          "security": [
            {
              "system": "http://terminology.hl7.org/CodeSystem/v3-ActReason",
              "code": "HTEST"
            },
            {
              "system": "http://terminology.hl7.org/CodeSystem/v3-ActReason",
              "code": "TRAIN"
            }
          ],
          "tag": [
            {
              "system": "https://synderai.net/fhir/CodeSystem/tags",
              "code": "synthetic",
              "display": "SYNDERAI Synthetic data"
            }
          ],
          "profile": [
            "http://hl7.eu/fhir/eps/StructureDefinition/composition-eu-eps"
          ]
        },
        "identifier": {
          "assigner": {
            "display": "HL7 Europe"
          },
          "system": "urn:oid:2.16.840.1.113883.2.51.999",
          "value": "c8fafeb9-044e-4069-aad2-4bccda628d0f"
        },
        "type": {
          "coding": [
            {
              "code": "60591-5",
              "system": "http://loinc.org",
              "display": "Patient summary Document"
            }
          ],
          "text": "Patient summary Document"
        },
        "author": [
          {
            "reference": "urn:uuid:14fc7ebc-04e5-4275-9806-77bb0e1d7414"
          }
        ],
        "section": [
          {
            "text": {
              "status": "generated",
              "div": "<div xmlns=\"http://www.w3.org/1999/xhtml\"><table class=\"hl7__ips\"><tr><th>Condition</th><th>Onset Date</th><th>Status</th></tr><tr><td>Ischemic heart disease</td><td><span class=\"nb\">30-Dec-2019</span></td><td>active</td></tr><tr><td>Fibromyalgia</td><td><span class=\"nb\">05-Feb-2014</span></td><td>active</td></tr><tr><td>Osteoarthritis of knee</td><td><span class=\"nb\">01-Sep-1997</span></td><td>active</td></tr><tr><td>Essential hypertension</td><td><span class=\"nb\">25-Aug-1997</span></td><td>active</td></tr><tr><td>Sepsis</td><td><span class=\"nb\">08-Nov-1995</span></td><td>active</td></tr><tr><td>Prediabetes</td><td><span class=\"nb\">21-Nov-1977</span></td><td>active</td></tr><tr><td>Anemia</td><td><span class=\"nb\">21-Nov-1977</span></td><td>active</td></tr></table></div>"
            },
            "entry": [
              {
                "reference": "urn:uuid:44961d4b-8e79-49b8-8299-21504e444075"
              }
            ],
            "code": {
              "coding": [
                {
                  "system": "http://loinc.org",
                  "code": "11450-4",
                  "display": "Problem list - Reported"
                }
              ]
            },
            "title": "Problem list"
          },
          {
            "text": {
              "status": "generated",
              "div": "<div xmlns=\"http://www.w3.org/1999/xhtml\"><table class=\"hl7__ips\"><tr><td>No known medications</td></tr></table></div>"
            },
            "entry": [
              {
                "reference": "urn:uuid:6bdafa9e-db37-4afa-ac52-a3011b0fb54a"
              }
            ],
            "code": {
              "coding": [
                {
                  "system": "http://loinc.org",
                  "code": "10160-0",
                  "display": "History of Medication use Narrative"
                }
              ]
            },
            "title": "Medication list"
          },
          {
            "text": {
              "status": "generated",
              "div": "<div xmlns=\"http://www.w3.org/1999/xhtml\"><table class=\"hl7__ips\"><tr><th>Vaccine</th><th>Date</th></tr><tr><td>Influenza virus antigen only vaccine product</td><td><span class=\"nb\">26-Jan-2025</span></td></tr><tr><td>Streptococcus pneumoniae Danish serotype 1</td><td><span class=\"nb\">09-Jan-2022</span></td></tr><tr><td>SARS-CoV-2 mRNA vaccine</td><td><span class=\"nb\">11-Apr-2021</span></td></tr><tr><td>Streptococcus pneumoniae Danish serotype 1</td><td><span class=\"nb\">03-Jan-2021</span></td></tr><tr><td>Clostridium tetani toxoid antigen adsorbed only vaccine product</td><td><span class=\"nb\">11-Dec-2016</span></td></tr></table></div>"
            },
            "entry": [
              {
                "reference": "urn:uuid:fab9f47b-e0d7-496d-8d59-d2c230292cb0"
              }
            ],
            "code": {
              "coding": [
                {
                  "system": "http://loinc.org",
                  "code": "11369-6",
                  "display": "History of Immunization note"
                }
              ]
            },
            "title": "Immunizations list"
          },
          {
            "text": {
              "status": "generated",
              "div": "<div xmlns=\"http://www.w3.org/1999/xhtml\"><table class=\"hl7__ips\"><tr><th>Allergy/Intolerance</th><th>Onset Date</th><th>Status</th><th>Type</th><th>Reaction</th></tr><tr><td>Vaccine product containing only Clostridium tetani toxoid antigen adsorbed</td><td>?</td><td>active</td><td>?</td><td></td></tr></table></div>"
            },
            "entry": [
              {
                "reference": "urn:uuid:7462863c-c206-4c43-8134-3221c3e5b77a"
              }
            ],
            "code": {
              "coding": [
                {
                  "system": "http://loinc.org",
                  "code": "48765-2",
                  "display": "Allergies and adverse reactions Document"
                }
              ]
            },
            "title": "Allergies and Intolerances"
          },
          {
            "text": {
              "status": "generated",
              "div": "<div xmlns=\"http://www.w3.org/1999/xhtml\"><table class=\"hl7__ips\"><tr><th>Active Planned Care / Goals</th><th>Start Date</th><th>Reason</th></tr><tr><td>Musculoskeletal care</td><td><span class=\"nb\">01-Sep-1997</span></td><td>Osteoarthritis of knee</td></tr><tr><td><ul><li>Reduce knee pain severity to a tolerable level to improve mobility and quality of life.</li><li>Increase ability to walk and perform daily activities without significant limitation from knee osteoarthritis.</li><li>Decrease swelling and inflammation in the affected knee to minimize discomfort and prevent further joint damage.</li></ul></td><td></td><td></td></tr><tr><td>Lifestyle education regarding hypertension</td><td><span class=\"nb\">25-Aug-1997</span></td><td>Essential hypertension (disorder)</td></tr><tr><td><ul><li>Maintain blood pressure below 130/80 mmHg through lifestyle modifications.</li><li>Achieve a 5% reduction in body weight to assist in blood pressure management.</li><li>Engage in at least 150 minutes of moderate-intensity aerobic physical activity per week.</li><li>Limit sodium intake to less than 2.3 grams per day to support blood pressure control.</li></ul></td><td></td><td></td></tr><tr><td>Diabetes self management plan</td><td><span class=\"nb\">21-Nov-1977</span></td><td>Prediabetes</td></tr><tr><td><ul><li>Patient will implement and maintain lifestyle modifications to reduce risk of progression to diabetes, including dietary changes, increased physical activity, and regular blood glucose monitoring.</li><li>Patient will achieve a weight loss of at least 5% of baseline body weight through dietary and physical activity interventions.</li><li>Patient will maintain blood pressure below 130/80 mmHg to reduce cardiovascular risk.</li></ul></td><td></td><td></td></tr><tr><th>Immunization Recommendation</th><th>Due Date</th><th>Reason</th></tr><tr><td>Vaccine product containing only Influenza virus antigen (medicinal product)</td><td><span class=\"nb\">01-Oct-2025</span></td><td>Annual seasonal influenza vaccination</td></tr></table></div>"
            },
            "title": "Care Plan",
            "code": {
              "coding": [
                {
                  "code": "18776-5",
                  "system": "http://loinc.org",
                  "display": "Plan of care note"
                }
              ]
            }
          },
          {
            "text": {
              "status": "generated",
              "div": "<div xmlns=\"http://www.w3.org/1999/xhtml\"><table class=\"hl7__ips\"><tr><th>Vital Signs</th><th>2025-01-26</th><th>2024-01-21</th></tr><tr><td>Body Height</td><td>164.3 cm</td><td>164.3 cm</td></tr><tr><td>Pain severity - 0-10 verbal numeric rating [Score] - Reported</td><td>3 {score}</td><td>2 {score}</td></tr><tr><td>Body Weight</td><td>69.5 kg</td><td>69.5 kg</td></tr><tr><td>Body mass index (BMI) [Ratio]</td><td>25.8 kg/m2</td><td>25.8 kg/m2</td></tr><tr><td>Diastolic Blood Pressure</td><td>76 mm[Hg]</td><td>76 mm[Hg]</td></tr><tr><td>Systolic Blood Pressure</td><td>115 mm[Hg]</td><td>109 mm[Hg]</td></tr><tr><td>Heart rate</td><td>73 /min</td><td>98 /min</td></tr><tr><td>Respiratory rate</td><td>13 /min</td><td>15 /min</td></tr></table></div>"
            },
            "entry": [
              {
                "reference": "urn:uuid:69bba779-368f-4b8e-9509-9839f872ae68"
              }
            ],
            "code": {
              "coding": [
                {
                  "system": "http://loinc.org",
                  "code": "8716-3",
                  "display": "Vital signs note"
                }
              ]
            },
            "title": "Vital Signs"
          },
          {
            "text": {
              "status": "generated",
              "div": "<div xmlns=\"http://www.w3.org/1999/xhtml\"><table class=\"hl7__ips\"><table class=\"hl7__ips\"><thead><tr><th>Recent Lab Observations</th><th>27-JAN-2025</th><th>Reference&#xA0;Range</th><th>Unit</th></tr></thead><tbody><tr><td>Hemoglobin A1c/Hemoglobin.total in Blood</td><td>6.3</td><td>4.5 - 6.4</td><td>%</td></tr><tr><td>Glucose [Mass/volume] in Blood</td><td>93.9</td><td>70 - 99</td><td>mg/dL</td></tr><tr><td>Urea nitrogen [Mass/volume] in Blood</td><td>7.1</td><td>7 - 20</td><td>mg/dL</td></tr><tr><td>Creatinine [Mass/volume] in Blood</td><td>0.8</td><td>0.6 - 1.3</td><td>mg/dL</td></tr><tr><td>Calcium [Mass/volume] in Blood</td><td>8.5</td><td>8.5 - 10.5</td><td>mg/dL</td></tr><tr><td>Sodium [Moles/volume] in Blood</td><td>142.0</td><td>135 - 145</td><td>mmol/L</td></tr><tr><td>Potassium [Moles/volume] in Blood</td><td><strong>5.2 H</strong></td><td>3.5 - 5</td><td>mmol/L</td></tr><tr><td>Chloride [Moles/volume] in Blood</td><td><strong>110.0 H</strong></td><td>98 - 108</td><td>mmol/L</td></tr><tr><td>Carbon dioxide, total [Moles/volume] in Blood</td><td>24.8</td><td>22 - 32</td><td>mmol/L</td></tr><tr><td>Cholesterol [Mass/volume] in Serum or Plasma</td><td>199.0</td><td>125 - 200</td><td>mg/dL</td></tr><tr><td>Triglyceride [Mass/volume] in Serum or Plasma</td><td>135.1</td><td>0 - 150</td><td>mg/dL</td></tr><tr><td>Cholesterol in LDL [Mass/volume] in Serum or Plasma by Direct assay</td><td><strong>139.5 H</strong></td><td>0 - 130</td><td>mg/dL</td></tr><tr><td>Cholesterol in HDL [Mass/volume] in Serum or Plasma</td><td><strong>32.4 L</strong></td><td>40 - 60</td><td>mg/dL</td></tr></tbody></table></table></div>"
            },
            "title": "Relevant diagnostic tests/laboratory data",
            "code": {
              "coding": [
                {
                  "code": "30954-2",
                  "system": "http://loinc.org",
                  "display": "Relevant diagnostic tests/laboratory data note"
                }
              ]
            }
          },
          {
            "text": {
              "status": "generated",
              "div": "<div xmlns=\"http://www.w3.org/1999/xhtml\"><table class=\"hl7__ips\"><tr><th>Device</th><th>Date (since)</th></tr><tr><td>Manual wheelchair (physical object)</td><td><span class=\"nb\">31-Aug-1997</span></td></tr><tr><td>Wheelchair accessory (physical object)</td><td><span class=\"nb\">31-Aug-1997</span></td></tr><tr><td>Blood glucose meter (physical object)</td><td><span class=\"nb\">20-Nov-1977</span></td></tr></table></div>"
            },
            "entry": [
              {
                "reference": "urn:uuid:4449dd70-70ad-4fe2-be47-38c0afe55495"
              }
            ],
            "code": {
              "coding": [
                {
                  "system": "http://loinc.org",
                  "code": "46264-8",
                  "display": "History of medical device use"
                }
              ]
            },
            "title": "Device Use"
          }
        ],
        "title": "European Patient Summary",
        "status": "final",
        "subject": {
          "reference": "urn:uuid:7b960ad8-6999-4e8d-8655-99550acf28d2",
          "display": "Louis Thibault"
        },
        "custodian": {
          "reference": "urn:uuid:94e84202-8bf7-454a-a566-9dd684f83fce"
        },
        "date": "2025-01-27",
        "confidentiality": "N"
      }
    },
    {
      "fullUrl": "urn:uuid:7b960ad8-6999-4e8d-8655-99550acf28d2",
      "resource": {
        "resourceType": "Patient",
        "id": "7b960ad8-6999-4e8d-8655-99550acf28d2",
        "meta": {
          "security": [
            {
              "system": "http://terminology.hl7.org/CodeSystem/v3-ActReason",
              "code": "HTEST"
            },
            {
              "system": "http://terminology.hl7.org/CodeSystem/v3-ActReason",
              "code": "TRAIN"
            }
          ],
          "tag": [
            {
              "system": "https://synderai.net/fhir/CodeSystem/tags",
              "code": "synthetic",
              "display": "SYNDERAI Synthetic data"
            }
          ],
          "profile": [
            "http://hl7.eu/fhir/eps/StructureDefinition/patient-eu-eps"
          ]
        },
        "identifier": [
          {
            "type": {
              "coding": [
                {
                  "code": "PT",
                  "system": "http://terminology.hl7.org/CodeSystem/v2-0203"
                }
              ]
            },
            "system": "http://ec.europa.eu/identifier/eci",
            "value": "1129-809340-9"
          },
          {
            "type": {
              "coding": [
                {
                  "code": "MR",
                  "system": "http://terminology.hl7.org/CodeSystem/v2-0203"
                }
              ]
            },
            "system": "http://local.setting.eu/identifier",
            "value": "d39a8e2d-3144-ea22-aba4-3fc9cbb5cefe"
          }
        ],
        "name": [
          {
            "given": [
              "Louis"
            ],
            "family": "Thibault",
            "text": "Louis Thibault"
          }
        ],
        "address": [
          {
            "line": [
              "89, boulevard de Potier"
            ],
            "use": "home",
            "type": "physical",
            "postalCode": "63500",
            "city": "Perrier",
            "country": "France"
          }
        ],
        "telecom": [
          {
            "system": "phone",
            "value": "0235267460"
          }
        ],
        "extension": [
          {
            "url": "http://hl7.org/fhir/StructureDefinition/patient-nationality",
            "valueCodeableConcept": {
              "coding": [
                {
                  "code": "FR",
                  "system": "http://hl7.org/fhir/ValueSet/country"
                }
              ]
            }
          }
        ],
        "text": {
          "status": "generated",
          "div": "<div xmlns=\"http://www.w3.org/1999/xhtml\"><table class=\"hl7__ips\"><tr><td>Louis Thibault</td><td>male</td><td>24-Jul-1960</td></tr></table></div>"
        },
        "gender": "male",
        "birthDate": "1960-07-24"
      }
    },
    {
      "fullUrl": "urn:uuid:14fc7ebc-04e5-4275-9806-77bb0e1d7414",
      "resource": {
        "resourceType": "PractitionerRole",
        "id": "14fc7ebc-04e5-4275-9806-77bb0e1d7414",
        "meta": {
          "profile": [
            "http://hl7.eu/fhir/base/StructureDefinition/practitionerRole-eu"
          ]
        },
        "text": {
          "status": "generated",
          "div": "<div xmlns=\"http://www.w3.org/1999/xhtml\"><table class=\"hl7__ips\">Provider Role Id 14fc7ebc-04e5-4275-9806-77bb0e1d7414</table></div>"
        },
        "practitioner": {
          "reference": "urn:uuid:f58aed18-e823-4a9c-a9d4-c2dea3b7c4d3"
        },
        "organization": {
          "reference": "urn:uuid:94e84202-8bf7-454a-a566-9dd684f83fce"
        }
      }
    },
    {
      "fullUrl": "urn:uuid:94e84202-8bf7-454a-a566-9dd684f83fce",
      "resource": {
        "resourceType": "Organization",
        "id": "94e84202-8bf7-454a-a566-9dd684f83fce",
        "meta": {
          "profile": [
            "http://hl7.eu/fhir/base/StructureDefinition/organization-eu"
          ]
        },
        "identifier": [
          {
            "assigner": {
              "display": "HL7 Europe"
            },
            "system": "urn:oid:2.16.840.1.113883.2.51.999",
            "value": "49436f5f-ad5f-4b13-9fec-b82fcc99cfea"
          }
        ],
        "address": [
          {
            "line": [
              "Boulevard Étienne Clémentel 79"
            ],
            "city": "Riom",
            "postalCode": "63200",
            "country": "France"
          }
        ],
        "text": {
          "status": "generated",
          "div": "<div xmlns=\"http://www.w3.org/1999/xhtml\"><table class=\"hl7__ips\">Centre Hospitalier Guy Thomas</table></div>"
        },
        "name": "Centre Hospitalier Guy Thomas"
      }
    },
    {
      "fullUrl": "urn:uuid:f58aed18-e823-4a9c-a9d4-c2dea3b7c4d3",
      "resource": {
        "resourceType": "Practitioner",
        "id": "f58aed18-e823-4a9c-a9d4-c2dea3b7c4d3",
        "meta": {
          "profile": [
            "http://hl7.eu/fhir/base/StructureDefinition/practitioner-eu"
          ]
        },
        "name": [
          {
            "prefix": [
              "Dr."
            ],
            "given": [
              "Hel"
            ],
            "family": "Ping"
          }
        ],
        "text": {
          "status": "generated",
          "div": "<div xmlns=\"http://www.w3.org/1999/xhtml\"><table class=\"hl7__ips\">Dr. Hel Ping</table></div>"
        }
      }
    },
    {
      "fullUrl": "urn:uuid:44961d4b-8e79-49b8-8299-21504e444075",
      "resource": {
        "resourceType": "Condition",
        "id": "44961d4b-8e79-49b8-8299-21504e444075",
        "meta": {
          "profile": [
            "http://hl7.org/fhir/uv/ips/StructureDefinition/Condition-uv-ips"
          ]
        },
        "category": [
          {
            "coding": [
              {
                "code": "problem-list-item",
                "system": "http://terminology.hl7.org/CodeSystem/condition-category",
                "display": "Problem List Item"
              }
            ]
          }
        ],
        "code": {
          "coding": [
            {
              "code": "414545008",
              "system": "http://snomed.info/sct",
              "display": "Ischemic heart disease (disorder)"
            }
          ],
          "text": "Ischemic heart disease"
        },
        "text": {
          "status": "generated",
          "div": "<div xmlns=\"http://www.w3.org/1999/xhtml\"><table class=\"hl7__ips\"><tr><td>Ischemic heart disease</td><td><span class=\"nb\">30-Dec-2019</span></td><td>active</td></tr></table></div>"
        },
        "onsetDateTime": "2019-12-30",
        "subject": {
          "reference": "urn:uuid:7b960ad8-6999-4e8d-8655-99550acf28d2",
          "display": "Louis Thibault"
        },
        "asserter": {
          "reference": "urn:uuid:14fc7ebc-04e5-4275-9806-77bb0e1d7414",
          "display": "Centre Hospitalier Guy Thomas"
        }
      }
    },
    {
      "fullUrl": "urn:uuid:05229014-6001-42b9-b0f4-5cd701a3d3e5",
      "resource": {
        "resourceType": "Condition",
        "id": "05229014-6001-42b9-b0f4-5cd701a3d3e5",
        "meta": {
          "profile": [
            "http://hl7.org/fhir/uv/ips/StructureDefinition/Condition-uv-ips"
          ]
        },
        "category": [
          {
            "coding": [
              {
                "code": "problem-list-item",
                "system": "http://terminology.hl7.org/CodeSystem/condition-category",
                "display": "Problem List Item"
              }
            ]
          }
        ],
        "code": {
          "coding": [
            {
              "code": "203082005",
              "system": "http://snomed.info/sct",
              "display": "Fibromyalgia (disorder)"
            }
          ],
          "text": "Fibromyalgia"
        },
        "text": {
          "status": "generated",
          "div": "<div xmlns=\"http://www.w3.org/1999/xhtml\"><table class=\"hl7__ips\"><tr><td>Fibromyalgia</td><td><span class=\"nb\">05-Feb-2014</span></td><td>active</td></tr></table></div>"
        },
        "onsetDateTime": "2014-02-05",
        "subject": {
          "reference": "urn:uuid:7b960ad8-6999-4e8d-8655-99550acf28d2",
          "display": "Louis Thibault"
        },
        "asserter": {
          "reference": "urn:uuid:14fc7ebc-04e5-4275-9806-77bb0e1d7414",
          "display": "Centre Hospitalier Guy Thomas"
        }
      }
    },
    {
      "fullUrl": "urn:uuid:9dcf1aae-34d2-410f-b132-7fc0b72cda3c",
      "resource": {
        "resourceType": "Condition",
        "id": "9dcf1aae-34d2-410f-b132-7fc0b72cda3c",
        "meta": {
          "profile": [
            "http://hl7.org/fhir/uv/ips/StructureDefinition/Condition-uv-ips"
          ]
        },
        "category": [
          {
            "coding": [
              {
                "code": "problem-list-item",
                "system": "http://terminology.hl7.org/CodeSystem/condition-category",
                "display": "Problem List Item"
              }
            ]
          }
        ],
        "code": {
          "coding": [
            {
              "code": "239873007",
              "system": "http://snomed.info/sct",
              "display": "Osteoarthritis of knee (disorder)"
            }
          ],
          "text": "Osteoarthritis of knee"
        },
        "text": {
          "status": "generated",
          "div": "<div xmlns=\"http://www.w3.org/1999/xhtml\"><table class=\"hl7__ips\"><tr><td>Osteoarthritis of knee</td><td><span class=\"nb\">01-Sep-1997</span></td><td>active</td></tr></table></div>"
        },
        "onsetDateTime": "1997-09-01",
        "subject": {
          "reference": "urn:uuid:7b960ad8-6999-4e8d-8655-99550acf28d2",
          "display": "Louis Thibault"
        },
        "asserter": {
          "reference": "urn:uuid:14fc7ebc-04e5-4275-9806-77bb0e1d7414",
          "display": "Centre Hospitalier Guy Thomas"
        }
      }
    },
    {
      "fullUrl": "urn:uuid:e2e6a990-9c40-4e58-963d-88f7c7102fc7",
      "resource": {
        "resourceType": "Condition",
        "id": "e2e6a990-9c40-4e58-963d-88f7c7102fc7",
        "meta": {
          "profile": [
            "http://hl7.org/fhir/uv/ips/StructureDefinition/Condition-uv-ips"
          ]
        },
        "category": [
          {
            "coding": [
              {
                "code": "problem-list-item",
                "system": "http://terminology.hl7.org/CodeSystem/condition-category",
                "display": "Problem List Item"
              }
            ]
          }
        ],
        "code": {
          "coding": [
            {
              "code": "59621000",
              "system": "http://snomed.info/sct",
              "display": "Essential hypertension (disorder)"
            }
          ],
          "text": "Essential hypertension"
        },
        "text": {
          "status": "generated",
          "div": "<div xmlns=\"http://www.w3.org/1999/xhtml\"><table class=\"hl7__ips\"><tr><td>Essential hypertension</td><td><span class=\"nb\">25-Aug-1997</span></td><td>active</td></tr></table></div>"
        },
        "onsetDateTime": "1997-08-25",
        "subject": {
          "reference": "urn:uuid:7b960ad8-6999-4e8d-8655-99550acf28d2",
          "display": "Louis Thibault"
        },
        "asserter": {
          "reference": "urn:uuid:14fc7ebc-04e5-4275-9806-77bb0e1d7414",
          "display": "Centre Hospitalier Guy Thomas"
        }
      }
    },
    {
      "fullUrl": "urn:uuid:c9ba81d5-e7ca-47ca-b10a-474fbdce8ad7",
      "resource": {
        "resourceType": "Condition",
        "id": "c9ba81d5-e7ca-47ca-b10a-474fbdce8ad7",
        "meta": {
          "profile": [
            "http://hl7.org/fhir/uv/ips/StructureDefinition/Condition-uv-ips"
          ]
        },
        "category": [
          {
            "coding": [
              {
                "code": "problem-list-item",
                "system": "http://terminology.hl7.org/CodeSystem/condition-category",
                "display": "Problem List Item"
              }
            ]
          }
        ],
        "code": {
          "coding": [
            {
              "code": "91302008",
              "system": "http://snomed.info/sct",
              "display": "Sepsis (disorder)"
            }
          ],
          "text": "Sepsis"
        },
        "text": {
          "status": "generated",
          "div": "<div xmlns=\"http://www.w3.org/1999/xhtml\"><table class=\"hl7__ips\"><tr><td>Sepsis</td><td><span class=\"nb\">08-Nov-1995</span></td><td>active</td></tr></table></div>"
        },
        "onsetDateTime": "1995-11-08",
        "subject": {
          "reference": "urn:uuid:7b960ad8-6999-4e8d-8655-99550acf28d2",
          "display": "Louis Thibault"
        },
        "asserter": {
          "reference": "urn:uuid:14fc7ebc-04e5-4275-9806-77bb0e1d7414",
          "display": "Centre Hospitalier Guy Thomas"
        }
      }
    },
    {
      "fullUrl": "urn:uuid:9a5aa1fe-f8d6-4e4f-a27f-57a1cfcc1f98",
      "resource": {
        "resourceType": "Condition",
        "id": "9a5aa1fe-f8d6-4e4f-a27f-57a1cfcc1f98",
        "meta": {
          "profile": [
            "http://hl7.org/fhir/uv/ips/StructureDefinition/Condition-uv-ips"
          ]
        },
        "category": [
          {
            "coding": [
              {
                "code": "problem-list-item",
                "system": "http://terminology.hl7.org/CodeSystem/condition-category",
                "display": "Problem List Item"
              }
            ]
          }
        ],
        "code": {
          "coding": [
            {
              "code": "15777000",
              "system": "http://snomed.info/sct",
              "display": "Prediabetes (disorder)"
            }
          ],
          "text": "Prediabetes"
        },
        "text": {
          "status": "generated",
          "div": "<div xmlns=\"http://www.w3.org/1999/xhtml\"><table class=\"hl7__ips\"><tr><td>Prediabetes</td><td><span class=\"nb\">21-Nov-1977</span></td><td>active</td></tr></table></div>"
        },
        "onsetDateTime": "1977-11-21",
        "subject": {
          "reference": "urn:uuid:7b960ad8-6999-4e8d-8655-99550acf28d2",
          "display": "Louis Thibault"
        },
        "asserter": {
          "reference": "urn:uuid:14fc7ebc-04e5-4275-9806-77bb0e1d7414",
          "display": "Centre Hospitalier Guy Thomas"
        }
      }
    },
    {
      "fullUrl": "urn:uuid:2bccaa1a-9a90-4456-8026-3f4c938d89ff",
      "resource": {
        "resourceType": "Condition",
        "id": "2bccaa1a-9a90-4456-8026-3f4c938d89ff",
        "meta": {
          "profile": [
            "http://hl7.org/fhir/uv/ips/StructureDefinition/Condition-uv-ips"
          ]
        },
        "category": [
          {
            "coding": [
              {
                "code": "problem-list-item",
                "system": "http://terminology.hl7.org/CodeSystem/condition-category",
                "display": "Problem List Item"
              }
            ]
          }
        ],
        "code": {
          "coding": [
            {
              "code": "271737000",
              "system": "http://snomed.info/sct",
              "display": "Anemia (disorder)"
            }
          ],
          "text": "Anemia"
        },
        "text": {
          "status": "generated",
          "div": "<div xmlns=\"http://www.w3.org/1999/xhtml\"><table class=\"hl7__ips\"><tr><td>Anemia</td><td><span class=\"nb\">21-Nov-1977</span></td><td>active</td></tr></table></div>"
        },
        "onsetDateTime": "1977-11-21",
        "subject": {
          "reference": "urn:uuid:7b960ad8-6999-4e8d-8655-99550acf28d2",
          "display": "Louis Thibault"
        },
        "asserter": {
          "reference": "urn:uuid:14fc7ebc-04e5-4275-9806-77bb0e1d7414",
          "display": "Centre Hospitalier Guy Thomas"
        }
      }
    },
    {
      "fullUrl": "urn:uuid:db3880f3-cdd8-4302-9e98-3cdda532d068",
      "resource": {
        "resourceType": "Condition",
        "id": "db3880f3-cdd8-4302-9e98-3cdda532d068",
        "meta": {
          "profile": [
            "http://hl7.org/fhir/uv/ips/StructureDefinition/Condition-uv-ips"
          ]
        },
        "category": [
          {
            "coding": [
              {
                "code": "problem-list-item",
                "system": "http://terminology.hl7.org/CodeSystem/condition-category",
                "display": "Problem List Item"
              }
            ]
          }
        ],
        "code": {
          "coding": [
            {
              "code": "195662009",
              "system": "http://snomed.info/sct",
              "display": "Acute viral pharyngitis (disorder)"
            }
          ],
          "text": "Acute viral pharyngitis"
        },
        "text": {
          "status": "generated",
          "div": "<div xmlns=\"http://www.w3.org/1999/xhtml\"><table class=\"hl7__ips\"><tr><td><span class=\"grayedout\">Acute viral pharyngitis</span></td><td><span class=\"nb\">18-Aug-2022 - 28-Aug-2022</span></td><td><span class=\"grayedout\">inactive</span></td></tr></table></div>"
        },
        "onsetDateTime": "2022-08-18",
        "abatementDateTime": "2022-08-28",
        "subject": {
          "reference": "urn:uuid:7b960ad8-6999-4e8d-8655-99550acf28d2",
          "display": "Louis Thibault"
        },
        "asserter": {
          "reference": "urn:uuid:14fc7ebc-04e5-4275-9806-77bb0e1d7414",
          "display": "Centre Hospitalier Guy Thomas"
        }
      }
    },
    {
      "fullUrl": "urn:uuid:424d91cc-1d16-41b0-837e-896a5886fdec",
      "resource": {
        "resourceType": "Condition",
        "id": "424d91cc-1d16-41b0-837e-896a5886fdec",
        "meta": {
          "profile": [
            "http://hl7.org/fhir/uv/ips/StructureDefinition/Condition-uv-ips"
          ]
        },
        "category": [
          {
            "coding": [
              {
                "code": "problem-list-item",
                "system": "http://terminology.hl7.org/CodeSystem/condition-category",
                "display": "Problem List Item"
              }
            ]
          }
        ],
        "code": {
          "coding": [
            {
              "code": "10509002",
              "system": "http://snomed.info/sct",
              "display": "Acute bronchitis (disorder)"
            }
          ],
          "text": "Acute bronchitis"
        },
        "text": {
          "status": "generated",
          "div": "<div xmlns=\"http://www.w3.org/1999/xhtml\"><table class=\"hl7__ips\"><tr><td><span class=\"grayedout\">Acute bronchitis</span></td><td><span class=\"nb\">27-Apr-2022 - 15-May-2022</span></td><td><span class=\"grayedout\">inactive</span></td></tr></table></div>"
        },
        "onsetDateTime": "2022-04-27",
        "abatementDateTime": "2022-05-15",
        "subject": {
          "reference": "urn:uuid:7b960ad8-6999-4e8d-8655-99550acf28d2",
          "display": "Louis Thibault"
        },
        "asserter": {
          "reference": "urn:uuid:14fc7ebc-04e5-4275-9806-77bb0e1d7414",
          "display": "Centre Hospitalier Guy Thomas"
        }
      }
    },
    {
      "fullUrl": "urn:uuid:69b3c7bb-5250-4a69-a87f-f69774346a91",
      "resource": {
        "resourceType": "Condition",
        "id": "69b3c7bb-5250-4a69-a87f-f69774346a91",
        "meta": {
          "profile": [
            "http://hl7.org/fhir/uv/ips/StructureDefinition/Condition-uv-ips"
          ]
        },
        "category": [
          {
            "coding": [
              {
                "code": "problem-list-item",
                "system": "http://terminology.hl7.org/CodeSystem/condition-category",
                "display": "Problem List Item"
              }
            ]
          }
        ],
        "code": {
          "coding": [
            {
              "code": "10509002",
              "system": "http://snomed.info/sct",
              "display": "Acute bronchitis (disorder)"
            }
          ],
          "text": "Acute bronchitis"
        },
        "text": {
          "status": "generated",
          "div": "<div xmlns=\"http://www.w3.org/1999/xhtml\"><table class=\"hl7__ips\"><tr><td><span class=\"grayedout\">Acute bronchitis</span></td><td><span class=\"nb\">23-Sep-2017 - 11-Oct-2017</span></td><td><span class=\"grayedout\">inactive</span></td></tr></table></div>"
        },
        "onsetDateTime": "2017-09-23",
        "abatementDateTime": "2017-10-11",
        "subject": {
          "reference": "urn:uuid:7b960ad8-6999-4e8d-8655-99550acf28d2",
          "display": "Louis Thibault"
        },
        "asserter": {
          "reference": "urn:uuid:14fc7ebc-04e5-4275-9806-77bb0e1d7414",
          "display": "Centre Hospitalier Guy Thomas"
        }
      }
    },
    {
      "fullUrl": "urn:uuid:6bdafa9e-db37-4afa-ac52-a3011b0fb54a",
      "resource": {
        "resourceType": "MedicationStatement",
        "id": "6bdafa9e-db37-4afa-ac52-a3011b0fb54a",
        "meta": {
          "profile": [
            "http://hl7.eu/fhir/eps/StructureDefinition/MedicationStatement-eu-eps"
          ]
        },
        "effectivePeriod": {
          "extension": [
            {
              "url": "http://hl7.org/fhir/StructureDefinition/data-absent-reason",
              "valueCode": "unknown"
            }
          ]
        },
        "status": "active",
        "medicationCodeableConcept": {
          "coding": [
            {
              "code": "787481004",
              "system": "http://snomed.info/sct",
              "display": "No known medications (situation)"
            }
          ]
        },
        "subject": {
          "reference": "urn:uuid:7b960ad8-6999-4e8d-8655-99550acf28d2",
          "display": "Louis Thibault"
        }
      }
    },
    {
      "fullUrl": "urn:uuid:fab9f47b-e0d7-496d-8d59-d2c230292cb0",
      "resource": {
        "resourceType": "Immunization",
        "id": "fab9f47b-e0d7-496d-8d59-d2c230292cb0",
        "meta": {
          "profile": [
            "http://hl7.org/fhir/uv/ips/StructureDefinition/Immunization-uv-ips"
          ]
        },
        "vaccineCode": {
          "coding": [
            {
              "code": "1181000221105",
              "system": "http://snomed.info/sct",
              "display": "Vaccine product containing Influenza virus antigen"
            },
            {
              "code": "J07BB02",
              "system": "http://www.whocc.no/atc",
              "display": "Influenza, inactivated, split virus"
            }
          ],
          "text": "Influenza virus antigen only vaccine product"
        },
        "site": {
          "coding": [
            {
              "code": "244979005",
              "system": "http://snomed.info/sct",
              "display": "Entire muscle of upper arm"
            }
          ],
          "text": "Entire muscle of upper arm"
        },
        "route": {
          "coding": [
            {
              "code": "78421000",
              "system": "http://snomed.info/sct",
              "display": "Intramuscular route"
            }
          ],
          "text": "Intramuscular route"
        },
        "text": {
          "status": "generated",
          "div": "<div xmlns=\"http://www.w3.org/1999/xhtml\"><table class=\"hl7__ips\"><tr><td>Influenza virus antigen only vaccine product</td><td><span class=\"nb\">26-Jan-2025</span></td></tr></table></div>"
        },
        "status": "completed",
        "patient": {
          "reference": "urn:uuid:7b960ad8-6999-4e8d-8655-99550acf28d2",
          "display": "Louis Thibault"
        },
        "occurrenceDateTime": "2025-01-26",
        "lotNumber": "HV-XNVdtf",
        "expirationDate": "2025-05-08"
      }
    },
    {
      "fullUrl": "urn:uuid:cd3ca9e6-a7de-45f0-83c2-6ca9d8f49fc3",
      "resource": {
        "resourceType": "Immunization",
        "id": "cd3ca9e6-a7de-45f0-83c2-6ca9d8f49fc3",
        "meta": {
          "profile": [
            "http://hl7.org/fhir/uv/ips/StructureDefinition/Immunization-uv-ips"
          ]
        },
        "vaccineCode": {
          "coding": [
            {
              "code": "1252709000",
              "system": "http://snomed.info/sct",
              "display": "Vaccine product containing Streptococcus pneumoniae capsular polysaccharide antigens conjugated"
            },
            {
              "code": "J07AL01",
              "system": "http://www.whocc.no/atc",
              "display": "Pneumococcal polysaccharide vaccines"
            }
          ],
          "text": "Streptococcus pneumoniae Danish serotype 1"
        },
        "site": {
          "coding": [
            {
              "code": "244979005",
              "system": "http://snomed.info/sct",
              "display": "Entire muscle of upper arm"
            }
          ],
          "text": "Entire muscle of upper arm"
        },
        "route": {
          "coding": [
            {
              "code": "78421000",
              "system": "http://snomed.info/sct",
              "display": "Intramuscular route"
            }
          ],
          "text": "Intramuscular route"
        },
        "text": {
          "status": "generated",
          "div": "<div xmlns=\"http://www.w3.org/1999/xhtml\"><table class=\"hl7__ips\"><tr><td>Streptococcus pneumoniae Danish serotype 1</td><td><span class=\"nb\">09-Jan-2022</span></td></tr></table></div>"
        },
        "status": "completed",
        "patient": {
          "reference": "urn:uuid:7b960ad8-6999-4e8d-8655-99550acf28d2",
          "display": "Louis Thibault"
        },
        "occurrenceDateTime": "2022-01-09",
        "lotNumber": "CI-g4pFoTL",
        "expirationDate": "2022-02-08"
      }
    },
    {
      "fullUrl": "urn:uuid:0552fd28-ae6c-47b3-a05c-e0699659f342",
      "resource": {
        "resourceType": "Immunization",
        "id": "0552fd28-ae6c-47b3-a05c-e0699659f342",
        "meta": {
          "profile": [
            "http://hl7.org/fhir/uv/ips/StructureDefinition/Immunization-uv-ips"
          ]
        },
        "vaccineCode": {
          "coding": [
            {
              "code": "1119349007",
              "system": "http://snomed.info/sct",
              "display": "Vaccine product containing SARS-CoV-2 mRNA"
            },
            {
              "code": "J07BX03",
              "system": "http://www.whocc.no/atc",
              "display": "COVID-19 mRNA vaccines"
            }
          ],
          "text": "SARS-CoV-2 mRNA vaccine"
        },
        "site": {
          "coding": [
            {
              "code": "244979005",
              "system": "http://snomed.info/sct",
              "display": "Entire muscle of upper arm"
            }
          ],
          "text": "Entire muscle of upper arm"
        },
        "route": {
          "coding": [
            {
              "code": "78421000",
              "system": "http://snomed.info/sct",
              "display": "Intramuscular route"
            }
          ],
          "text": "Intramuscular route"
        },
        "text": {
          "status": "generated",
          "div": "<div xmlns=\"http://www.w3.org/1999/xhtml\"><table class=\"hl7__ips\"><tr><td>SARS-CoV-2 mRNA vaccine</td><td><span class=\"nb\">11-Apr-2021</span></td></tr></table></div>"
        },
        "status": "completed",
        "patient": {
          "reference": "urn:uuid:7b960ad8-6999-4e8d-8655-99550acf28d2",
          "display": "Louis Thibault"
        },
        "occurrenceDateTime": "2021-04-11",
        "lotNumber": "SH-KPQy",
        "expirationDate": "2022-04-07"
      }
    },
    {
      "fullUrl": "urn:uuid:aa37d7cc-60e9-4526-b47f-2b2c06aedd5d",
      "resource": {
        "resourceType": "Immunization",
        "id": "aa37d7cc-60e9-4526-b47f-2b2c06aedd5d",
        "meta": {
          "profile": [
            "http://hl7.org/fhir/uv/ips/StructureDefinition/Immunization-uv-ips"
          ]
        },
        "vaccineCode": {
          "coding": [
            {
              "code": "51451000087105",
              "system": "http://snomed.info/sct",
              "display": "Vaccine product containing Streptococcus pneumoniae capsular polysaccharide antigens conjugated"
            },
            {
              "code": "J07AL02",
              "system": "http://www.whocc.no/atc",
              "display": "Pneumococcal conjugate vaccines"
            }
          ],
          "text": "Streptococcus pneumoniae Danish serotype 1"
        },
        "site": {
          "coding": [
            {
              "code": "244979005",
              "system": "http://snomed.info/sct",
              "display": "Entire muscle of upper arm"
            }
          ],
          "text": "Entire muscle of upper arm"
        },
        "route": {
          "coding": [
            {
              "code": "78421000",
              "system": "http://snomed.info/sct",
              "display": "Intramuscular route"
            }
          ],
          "text": "Intramuscular route"
        },
        "text": {
          "status": "generated",
          "div": "<div xmlns=\"http://www.w3.org/1999/xhtml\"><table class=\"hl7__ips\"><tr><td>Streptococcus pneumoniae Danish serotype 1</td><td><span class=\"nb\">03-Jan-2021</span></td></tr></table></div>"
        },
        "status": "completed",
        "patient": {
          "reference": "urn:uuid:7b960ad8-6999-4e8d-8655-99550acf28d2",
          "display": "Louis Thibault"
        },
        "occurrenceDateTime": "2021-01-03",
        "lotNumber": "MI-OeC4zRJ7",
        "expirationDate": "2021-07-15"
      }
    },
    {
      "fullUrl": "urn:uuid:e7866837-bebc-4d3a-a711-1d6889f9c136",
      "resource": {
        "resourceType": "Immunization",
        "id": "e7866837-bebc-4d3a-a711-1d6889f9c136",
        "meta": {
          "profile": [
            "http://hl7.org/fhir/uv/ips/StructureDefinition/Immunization-uv-ips"
          ]
        },
        "vaccineCode": {
          "coding": [
            {
              "code": "777725002",
              "system": "http://snomed.info/sct",
              "display": "Vaccine product containing only Clostridium tetani toxoid antigen adsorbed"
            },
            {
              "code": "J07AM51",
              "system": "http://www.whocc.no/atc",
              "display": "Diphtheria-tetanus vaccines, adult type"
            }
          ],
          "text": "Clostridium tetani toxoid antigen adsorbed only vaccine product"
        },
        "site": {
          "coding": [
            {
              "code": "244979005",
              "system": "http://snomed.info/sct",
              "display": "Entire muscle of upper arm"
            }
          ],
          "text": "Entire muscle of upper arm"
        },
        "route": {
          "coding": [
            {
              "code": "78421000",
              "system": "http://snomed.info/sct",
              "display": "Intramuscular route"
            }
          ],
          "text": "Intramuscular route"
        },
        "text": {
          "status": "generated",
          "div": "<div xmlns=\"http://www.w3.org/1999/xhtml\"><table class=\"hl7__ips\"><tr><td>Clostridium tetani toxoid antigen adsorbed only vaccine product</td><td><span class=\"nb\">11-Dec-2016</span></td></tr></table></div>"
        },
        "status": "completed",
        "patient": {
          "reference": "urn:uuid:7b960ad8-6999-4e8d-8655-99550acf28d2",
          "display": "Louis Thibault"
        },
        "occurrenceDateTime": "2016-12-11",
        "lotNumber": "HP-vA4dJ",
        "expirationDate": "2017-03-15"
      }
    },
    {
      "fullUrl": "urn:uuid:7462863c-c206-4c43-8134-3221c3e5b77a",
      "resource": {
        "resourceType": "AllergyIntolerance",
        "id": "7462863c-c206-4c43-8134-3221c3e5b77a",
        "meta": {
          "profile": [
            "http://hl7.eu/fhir/base/StructureDefinition/allergyIntolerance-eu-core"
          ]
        },
        "code": {
          "coding": [
            {
              "code": "777725002",
              "system": "http://snomed.info/sct",
              "display": "Vaccine product containing only Clostridium tetani toxoid antigen adsorbed"
            }
          ],
          "text": "Vaccine product containing only Clostridium tetani toxoid antigen adsorbed"
        },
        "clinicalStatus": {
          "coding": [
            {
              "code": "active",
              "system": "http://terminology.hl7.org/CodeSystem/allergyintolerance-clinical"
            }
          ]
        },
        "text": {
          "status": "generated",
          "div": "<div xmlns=\"http://www.w3.org/1999/xhtml\"><table class=\"hl7__ips\"><tr><th>Allergy/Intolerance</th><th>Onset Date</th><th>Status</th><th>Type</th><th>Reaction</th></tr><tr><td>Vaccine product containing only Clostridium tetani toxoid antigen adsorbed</td><td>?</td><td>active</td><td>?</td><td></td></tr></table></div>"
        },
        "verificationStatus": {
          "coding": [
            {
              "code": "confirmed",
              "system": "http://terminology.hl7.org/CodeSystem/allergyintolerance-verification"
            }
          ]
        },
        "patient": {
          "reference": "urn:uuid:7b960ad8-6999-4e8d-8655-99550acf28d2",
          "display": "Louis Thibault"
        },
        "_onsetDateTime": {
          "extension": [
            {
              "url": "http://hl7.org/fhir/StructureDefinition/data-absent-reason",
              "valueCode": "unknown"
            }
          ]
        }
      }
    },
    {
      "fullUrl": "urn:uuid:b52f5c86-e318-4229-9df0-d4a1ef4f1d1a",
      "resource": {
        "resourceType": "CarePlan",
        "id": "b52f5c86-e318-4229-9df0-d4a1ef4f1d1a",
        "category": [
          {
            "coding": [
              {
                "code": "assess-plan",
                "system": "http://terminology.hl7.org/CodeSystem/care-plan-category",
                "display": "Assessment and Plan"
              }
            ]
          }
        ],
        "activity": [
          {
            "detail": {
              "code": {
                "coding": [
                  {
                    "code": "408869004",
                    "system": "http://snomed.info/sct",
                    "display": "Musculoskeletal care (regime/therapy)"
                  }
                ]
              },
              "reasonCode": [
                {
                  "coding": [
                    {
                      "code": "239873007",
                      "system": "http://snomed.info/sct",
                      "display": "Osteoarthritis of knee"
                    }
                  ]
                }
              ],
              "status": "unknown",
              "description": "Musculoskeletal care",
              "kind": "Appointment"
            }
          }
        ],
        "period": {
          "start": "1997-09-01"
        },
        "goal": [
          {
            "reference": "urn:uuid:9699b2e5-1dc7-4b36-935e-125c3844bfe3"
          },
          {
            "reference": "urn:uuid:341901bb-2448-4aa3-b3f5-910568bf90e2"
          },
          {
            "reference": "urn:uuid:7930d4b2-39f2-4bba-bee7-7578755a970a"
          }
        ],
        "text": {
          "status": "generated",
          "div": "<div xmlns=\"http://www.w3.org/1999/xhtml\"><table class=\"hl7__ips first25\"><tr><th>Active Planned Care / Goals</th><th>Start Date</th><th>Reason</th></tr><tr><td>Musculoskeletal care</td><td><span class=\"nb\">01-Sep-1997</span></td><td>Osteoarthritis of knee</td></tr><tr><td><ul><li>Reduce knee pain severity to a tolerable level to improve mobility and quality of life.</li><li>Increase ability to walk and perform daily activities without significant limitation from knee osteoarthritis.</li><li>Decrease swelling and inflammation in the affected knee to minimize discomfort and prevent further joint damage.</li></ul></td><td></td><td></td></tr></table></div>"
        },
        "status": "active",
        "intent": "plan",
        "subject": {
          "reference": "urn:uuid:7b960ad8-6999-4e8d-8655-99550acf28d2",
          "display": "Louis Thibault"
        }
      }
    },
    {
      "fullUrl": "urn:uuid:0505a3ee-1f71-4ba0-aad4-350e3371d125",
      "resource": {
        "resourceType": "CarePlan",
        "id": "0505a3ee-1f71-4ba0-aad4-350e3371d125",
        "category": [
          {
            "coding": [
              {
                "code": "assess-plan",
                "system": "http://terminology.hl7.org/CodeSystem/care-plan-category",
                "display": "Assessment and Plan"
              }
            ]
          }
        ],
        "activity": [
          {
            "detail": {
              "code": {
                "coding": [
                  {
                    "code": "443402002",
                    "system": "http://snomed.info/sct",
                    "display": "Lifestyle education regarding hypertension (procedure)"
                  }
                ]
              },
              "reasonCode": [
                {
                  "coding": [
                    {
                      "code": "59621000",
                      "system": "http://snomed.info/sct",
                      "display": "Essential hypertension (disorder)"
                    }
                  ]
                }
              ],
              "status": "unknown",
              "description": "Lifestyle education regarding hypertension",
              "kind": "Appointment"
            }
          }
        ],
        "period": {
          "start": "1997-08-25"
        },
        "goal": [
          {
            "reference": "urn:uuid:fccb255b-df81-44cc-a0e2-84481d522a6d"
          },
          {
            "reference": "urn:uuid:83160905-73e0-4bec-86de-3eb34ba81a03"
          },
          {
            "reference": "urn:uuid:86328235-c1b8-4b8c-9507-e0fce3e684e0"
          },
          {
            "reference": "urn:uuid:e17d9d82-249e-49ad-98c9-45c2ac3d3618"
          }
        ],
        "text": {
          "status": "generated",
          "div": "<div xmlns=\"http://www.w3.org/1999/xhtml\"><table class=\"hl7__ips first25\"><tr><th>Active Planned Care / Goals</th><th>Start Date</th><th>Reason</th></tr><tr><td>Lifestyle education regarding hypertension</td><td><span class=\"nb\">25-Aug-1997</span></td><td>Essential hypertension (disorder)</td></tr><tr><td><ul><li>Maintain blood pressure below 130/80 mmHg through lifestyle modifications.</li><li>Achieve a 5% reduction in body weight to assist in blood pressure management.</li><li>Engage in at least 150 minutes of moderate-intensity aerobic physical activity per week.</li><li>Limit sodium intake to less than 2.3 grams per day to support blood pressure control.</li></ul></td><td></td><td></td></tr></table></div>"
        },
        "status": "active",
        "intent": "plan",
        "subject": {
          "reference": "urn:uuid:7b960ad8-6999-4e8d-8655-99550acf28d2",
          "display": "Louis Thibault"
        }
      }
    },
    {
      "fullUrl": "urn:uuid:14b59264-2c8a-4c56-9714-00f44a245d25",
      "resource": {
        "resourceType": "CarePlan",
        "id": "14b59264-2c8a-4c56-9714-00f44a245d25",
        "category": [
          {
            "coding": [
              {
                "code": "assess-plan",
                "system": "http://terminology.hl7.org/CodeSystem/care-plan-category",
                "display": "Assessment and Plan"
              }
            ]
          }
        ],
        "activity": [
          {
            "detail": {
              "code": {
                "coding": [
                  {
                    "code": "698360004",
                    "system": "http://snomed.info/sct",
                    "display": "Diabetes self management plan (qualifier value)"
                  }
                ]
              },
              "reasonCode": [
                {
                  "coding": [
                    {
                      "code": "15777000",
                      "system": "http://snomed.info/sct",
                      "display": "Prediabetes"
                    }
                  ]
                }
              ],
              "status": "unknown",
              "description": "Diabetes self management plan",
              "kind": "Appointment"
            }
          }
        ],
        "period": {
          "start": "1977-11-21"
        },
        "goal": [
          {
            "reference": "urn:uuid:81ea8198-c913-40d5-bbc4-216712e49564"
          },
          {
            "reference": "urn:uuid:ef336f41-cad2-4107-8c57-667c0cf7eac4"
          },
          {
            "reference": "urn:uuid:300a852a-2ec6-4a91-8484-aa1a635aa7a4"
          }
        ],
        "text": {
          "status": "generated",
          "div": "<div xmlns=\"http://www.w3.org/1999/xhtml\"><table class=\"hl7__ips first25\"><tr><th>Active Planned Care / Goals</th><th>Start Date</th><th>Reason</th></tr><tr><td>Diabetes self management plan</td><td><span class=\"nb\">21-Nov-1977</span></td><td>Prediabetes</td></tr><tr><td><ul><li>Patient will implement and maintain lifestyle modifications to reduce risk of progression to diabetes, including dietary changes, increased physical activity, and regular blood glucose monitoring.</li><li>Patient will achieve a weight loss of at least 5% of baseline body weight through dietary and physical activity interventions.</li><li>Patient will maintain blood pressure below 130/80 mmHg to reduce cardiovascular risk.</li></ul></td><td></td><td></td></tr></table></div>"
        },
        "status": "active",
        "intent": "plan",
        "subject": {
          "reference": "urn:uuid:7b960ad8-6999-4e8d-8655-99550acf28d2",
          "display": "Louis Thibault"
        }
      }
    },
    {
      "fullUrl": "urn:uuid:ccf2f0ae-40bc-45b3-a630-737ae87c5b3e",
      "resource": {
        "resourceType": "ImmunizationRecommendation",
        "id": "ccf2f0ae-40bc-45b3-a630-737ae87c5b3e",
        "recommendation": [
          {
            "vaccineCode": [
              {
                "coding": [
                  {
                    "code": "1181000221105",
                    "system": "http://snomed.info/sct",
                    "display": "Vaccine product containing only Influenza virus antigen (medicinal product)"
                  }
                ]
              }
            ],
            "dateCriterion": [
              {
                "code": {
                  "coding": [
                    {
                      "code": "30980-7",
                      "system": "http://loinc.org",
                      "display": "Date vaccine due"
                    }
                  ]
                },
                "value": "2025-10-01"
              }
            ],
            "targetDisease": {
              "coding": [
                {
                  "code": "6142004",
                  "system": "http://snomed.info/sct",
                  "display": "Influenza (disorder)"
                }
              ]
            },
            "series": "Annual seasonal influenza vaccination",
            "forecastStatus": {
              "coding": [
                {
                  "code": "due",
                  "system": "http://terminology.hl7.org/CodeSystem/immunization-recommendation-status",
                  "display": "Due"
                }
              ]
            }
          }
        ],
        "text": {
          "status": "generated",
          "div": "<div xmlns=\"http://www.w3.org/1999/xhtml\"><table class=\"hl7__ips\"><tr><td>Vaccine product containing only Influenza virus antigen (medicinal product)</td><td><span class=\"nb\">01-Oct-2025</span></td><td>Annual seasonal influenza vaccination</td></tr></table></div>"
        },
        "date": "2025-12-11",
        "patient": {
          "reference": "urn:uuid:7b960ad8-6999-4e8d-8655-99550acf28d2",
          "display": "Louis Thibault"
        }
      }
    },
    {
      "fullUrl": "urn:uuid:69bba779-368f-4b8e-9509-9839f872ae68",
      "resource": {
        "resourceType": "Observation",
        "id": "69bba779-368f-4b8e-9509-9839f872ae68",
        "meta": {
          "profile": [
            "http://hl7.org/fhir/StructureDefinition/vitalsigns"
          ]
        },
        "category": [
          {
            "coding": [
              {
                "system": "http://terminology.hl7.org/CodeSystem/observation-category",
                "code": "vital-signs",
                "display": "Vital Signs"
              }
            ]
          }
        ],
        "valueQuantity": {
          "value": 164.3,
          "code": "cm",
          "unit": "cm"
        },
        "text": {
          "status": "generated",
          "div": "<div xmlns=\"http://www.w3.org/1999/xhtml\"><table class=\"hl7__ips\"><tr><th>Vital Sign</th><th>Date</th><th>Measurement</th></tr><tr><td>Body Height</td><td>26-Jan-2025</td><td>164.3 cm</td></tr></table></div>"
        },
        "status": "final",
        "code": {
          "coding": [
            {
              "code": "8302-2",
              "system": "http://loinc.org",
              "display": "Body Height"
            }
          ]
        },
        "subject": {
          "reference": "urn:uuid:7b960ad8-6999-4e8d-8655-99550acf28d2",
          "display": "Louis Thibault"
        },
        "effectiveDateTime": "2025-01-26"
      }
    },
    {
      "fullUrl": "urn:uuid:28e95656-05fe-4aba-ae0a-9c9a57a8b43e",
      "resource": {
        "resourceType": "Observation",
        "id": "28e95656-05fe-4aba-ae0a-9c9a57a8b43e",
        "meta": {
          "profile": [
            "http://hl7.org/fhir/StructureDefinition/vitalsigns"
          ]
        },
        "category": [
          {
            "coding": [
              {
                "system": "http://terminology.hl7.org/CodeSystem/observation-category",
                "code": "vital-signs",
                "display": "Vital Signs"
              }
            ]
          }
        ],
        "valueQuantity": {
          "value": 3,
          "code": "{score}",
          "unit": "{score}"
        },
        "text": {
          "status": "generated",
          "div": "<div xmlns=\"http://www.w3.org/1999/xhtml\"><table class=\"hl7__ips\"><tr><th>Vital Sign</th><th>Date</th><th>Measurement</th></tr><tr><td>Pain severity - 0-10 verbal numeric rating [Score] - Reported</td><td>26-Jan-2025</td><td>3 {score}</td></tr></table></div>"
        },
        "status": "final",
        "code": {
          "coding": [
            {
              "code": "72514-3",
              "system": "http://loinc.org",
              "display": "Pain severity - 0-10 verbal numeric rating [Score] - Reported"
            }
          ]
        },
        "subject": {
          "reference": "urn:uuid:7b960ad8-6999-4e8d-8655-99550acf28d2",
          "display": "Louis Thibault"
        },
        "effectiveDateTime": "2025-01-26"
      }
    },
    {
      "fullUrl": "urn:uuid:12c42acf-c8ff-48cf-88ef-2880ea02641f",
      "resource": {
        "resourceType": "Observation",
        "id": "12c42acf-c8ff-48cf-88ef-2880ea02641f",
        "meta": {
          "profile": [
            "http://hl7.org/fhir/StructureDefinition/vitalsigns"
          ]
        },
        "category": [
          {
            "coding": [
              {
                "system": "http://terminology.hl7.org/CodeSystem/observation-category",
                "code": "vital-signs",
                "display": "Vital Signs"
              }
            ]
          }
        ],
        "valueQuantity": {
          "value": 69.5,
          "code": "kg",
          "unit": "kg"
        },
        "text": {
          "status": "generated",
          "div": "<div xmlns=\"http://www.w3.org/1999/xhtml\"><table class=\"hl7__ips\"><tr><th>Vital Sign</th><th>Date</th><th>Measurement</th></tr><tr><td>Body Weight</td><td>26-Jan-2025</td><td>69.5 kg</td></tr></table></div>"
        },
        "status": "final",
        "code": {
          "coding": [
            {
              "code": "29463-7",
              "system": "http://loinc.org",
              "display": "Body Weight"
            }
          ]
        },
        "subject": {
          "reference": "urn:uuid:7b960ad8-6999-4e8d-8655-99550acf28d2",
          "display": "Louis Thibault"
        },
        "effectiveDateTime": "2025-01-26"
      }
    },
    {
      "fullUrl": "urn:uuid:ff2ab1ab-defa-4551-a783-9a55278c15b6",
      "resource": {
        "resourceType": "Observation",
        "id": "ff2ab1ab-defa-4551-a783-9a55278c15b6",
        "meta": {
          "profile": [
            "http://hl7.org/fhir/StructureDefinition/vitalsigns"
          ]
        },
        "category": [
          {
            "coding": [
              {
                "system": "http://terminology.hl7.org/CodeSystem/observation-category",
                "code": "vital-signs",
                "display": "Vital Signs"
              }
            ]
          }
        ],
        "valueQuantity": {
          "value": 25.8,
          "code": "kg/m2",
          "unit": "kg/m2"
        },
        "text": {
          "status": "generated",
          "div": "<div xmlns=\"http://www.w3.org/1999/xhtml\"><table class=\"hl7__ips\"><tr><th>Vital Sign</th><th>Date</th><th>Measurement</th></tr><tr><td>Body mass index (BMI) [Ratio]</td><td>26-Jan-2025</td><td>25.8 kg/m2</td></tr></table></div>"
        },
        "status": "final",
        "code": {
          "coding": [
            {
              "code": "39156-5",
              "system": "http://loinc.org",
              "display": "Body mass index (BMI) [Ratio]"
            }
          ]
        },
        "subject": {
          "reference": "urn:uuid:7b960ad8-6999-4e8d-8655-99550acf28d2",
          "display": "Louis Thibault"
        },
        "effectiveDateTime": "2025-01-26"
      }
    },
    {
      "fullUrl": "urn:uuid:06c67feb-79b5-4a99-93f9-a79dd56bb9f9",
      "resource": {
        "resourceType": "Observation",
        "id": "06c67feb-79b5-4a99-93f9-a79dd56bb9f9",
        "meta": {
          "profile": [
            "http://hl7.org/fhir/StructureDefinition/vitalsigns"
          ]
        },
        "category": [
          {
            "coding": [
              {
                "system": "http://terminology.hl7.org/CodeSystem/observation-category",
                "code": "vital-signs",
                "display": "Vital Signs"
              }
            ]
          }
        ],
        "valueQuantity": {
          "value": 76,
          "code": "mm[Hg]",
          "unit": "mm[Hg]"
        },
        "text": {
          "status": "generated",
          "div": "<div xmlns=\"http://www.w3.org/1999/xhtml\"><table class=\"hl7__ips\"><tr><th>Vital Sign</th><th>Date</th><th>Measurement</th></tr><tr><td>Diastolic Blood Pressure</td><td>26-Jan-2025</td><td>76 mm[Hg]</td></tr></table></div>"
        },
        "status": "final",
        "code": {
          "coding": [
            {
              "code": "8462-4",
              "system": "http://loinc.org",
              "display": "Diastolic Blood Pressure"
            }
          ]
        },
        "subject": {
          "reference": "urn:uuid:7b960ad8-6999-4e8d-8655-99550acf28d2",
          "display": "Louis Thibault"
        },
        "effectiveDateTime": "2025-01-26"
      }
    },
    {
      "fullUrl": "urn:uuid:0e0695c5-ebce-480d-bcf3-28e900181d91",
      "resource": {
        "resourceType": "Observation",
        "id": "0e0695c5-ebce-480d-bcf3-28e900181d91",
        "meta": {
          "profile": [
            "http://hl7.org/fhir/StructureDefinition/vitalsigns"
          ]
        },
        "category": [
          {
            "coding": [
              {
                "system": "http://terminology.hl7.org/CodeSystem/observation-category",
                "code": "vital-signs",
                "display": "Vital Signs"
              }
            ]
          }
        ],
        "valueQuantity": {
          "value": 115,
          "code": "mm[Hg]",
          "unit": "mm[Hg]"
        },
        "text": {
          "status": "generated",
          "div": "<div xmlns=\"http://www.w3.org/1999/xhtml\"><table class=\"hl7__ips\"><tr><th>Vital Sign</th><th>Date</th><th>Measurement</th></tr><tr><td>Systolic Blood Pressure</td><td>26-Jan-2025</td><td>115 mm[Hg]</td></tr></table></div>"
        },
        "status": "final",
        "code": {
          "coding": [
            {
              "code": "8480-6",
              "system": "http://loinc.org",
              "display": "Systolic Blood Pressure"
            }
          ]
        },
        "subject": {
          "reference": "urn:uuid:7b960ad8-6999-4e8d-8655-99550acf28d2",
          "display": "Louis Thibault"
        },
        "effectiveDateTime": "2025-01-26"
      }
    },
    {
      "fullUrl": "urn:uuid:999c2f03-480b-4d6f-9bad-864f46eea6e3",
      "resource": {
        "resourceType": "Observation",
        "id": "999c2f03-480b-4d6f-9bad-864f46eea6e3",
        "meta": {
          "profile": [
            "http://hl7.org/fhir/StructureDefinition/vitalsigns"
          ]
        },
        "category": [
          {
            "coding": [
              {
                "system": "http://terminology.hl7.org/CodeSystem/observation-category",
                "code": "vital-signs",
                "display": "Vital Signs"
              }
            ]
          }
        ],
        "valueQuantity": {
          "value": 73,
          "code": "/min",
          "unit": "/min"
        },
        "text": {
          "status": "generated",
          "div": "<div xmlns=\"http://www.w3.org/1999/xhtml\"><table class=\"hl7__ips\"><tr><th>Vital Sign</th><th>Date</th><th>Measurement</th></tr><tr><td>Heart rate</td><td>26-Jan-2025</td><td>73 /min</td></tr></table></div>"
        },
        "status": "final",
        "code": {
          "coding": [
            {
              "code": "8867-4",
              "system": "http://loinc.org",
              "display": "Heart rate"
            }
          ]
        },
        "subject": {
          "reference": "urn:uuid:7b960ad8-6999-4e8d-8655-99550acf28d2",
          "display": "Louis Thibault"
        },
        "effectiveDateTime": "2025-01-26"
      }
    },
    {
      "fullUrl": "urn:uuid:fd64735d-fead-4639-bce6-b4923d87dfd6",
      "resource": {
        "resourceType": "Observation",
        "id": "fd64735d-fead-4639-bce6-b4923d87dfd6",
        "meta": {
          "profile": [
            "http://hl7.org/fhir/StructureDefinition/vitalsigns"
          ]
        },
        "category": [
          {
            "coding": [
              {
                "system": "http://terminology.hl7.org/CodeSystem/observation-category",
                "code": "vital-signs",
                "display": "Vital Signs"
              }
            ]
          }
        ],
        "valueQuantity": {
          "value": 13,
          "code": "/min",
          "unit": "/min"
        },
        "text": {
          "status": "generated",
          "div": "<div xmlns=\"http://www.w3.org/1999/xhtml\"><table class=\"hl7__ips\"><tr><th>Vital Sign</th><th>Date</th><th>Measurement</th></tr><tr><td>Respiratory rate</td><td>26-Jan-2025</td><td>13 /min</td></tr></table></div>"
        },
        "status": "final",
        "code": {
          "coding": [
            {
              "code": "9279-1",
              "system": "http://loinc.org",
              "display": "Respiratory rate"
            }
          ]
        },
        "subject": {
          "reference": "urn:uuid:7b960ad8-6999-4e8d-8655-99550acf28d2",
          "display": "Louis Thibault"
        },
        "effectiveDateTime": "2025-01-26"
      }
    },
    {
      "fullUrl": "urn:uuid:c00897cc-b31f-44f3-ae8a-c7269ad4baa3",
      "resource": {
        "resourceType": "Observation",
        "id": "c00897cc-b31f-44f3-ae8a-c7269ad4baa3",
        "meta": {
          "profile": [
            "http://hl7.org/fhir/StructureDefinition/vitalsigns"
          ]
        },
        "category": [
          {
            "coding": [
              {
                "system": "http://terminology.hl7.org/CodeSystem/observation-category",
                "code": "vital-signs",
                "display": "Vital Signs"
              }
            ]
          }
        ],
        "valueQuantity": {
          "value": 164.3,
          "code": "cm",
          "unit": "cm"
        },
        "text": {
          "status": "generated",
          "div": "<div xmlns=\"http://www.w3.org/1999/xhtml\"><table class=\"hl7__ips\"><tr><th>Vital Sign</th><th>Date</th><th>Measurement</th></tr><tr><td>Body Height</td><td>21-Jan-2024</td><td>164.3 cm</td></tr></table></div>"
        },
        "status": "final",
        "code": {
          "coding": [
            {
              "code": "8302-2",
              "system": "http://loinc.org",
              "display": "Body Height"
            }
          ]
        },
        "subject": {
          "reference": "urn:uuid:7b960ad8-6999-4e8d-8655-99550acf28d2",
          "display": "Louis Thibault"
        },
        "effectiveDateTime": "2024-01-21"
      }
    },
    {
      "fullUrl": "urn:uuid:14c080cf-e56c-4a9d-b97f-fbb26efd0991",
      "resource": {
        "resourceType": "Observation",
        "id": "14c080cf-e56c-4a9d-b97f-fbb26efd0991",
        "meta": {
          "profile": [
            "http://hl7.org/fhir/StructureDefinition/vitalsigns"
          ]
        },
        "category": [
          {
            "coding": [
              {
                "system": "http://terminology.hl7.org/CodeSystem/observation-category",
                "code": "vital-signs",
                "display": "Vital Signs"
              }
            ]
          }
        ],
        "valueQuantity": {
          "value": 2,
          "code": "{score}",
          "unit": "{score}"
        },
        "text": {
          "status": "generated",
          "div": "<div xmlns=\"http://www.w3.org/1999/xhtml\"><table class=\"hl7__ips\"><tr><th>Vital Sign</th><th>Date</th><th>Measurement</th></tr><tr><td>Pain severity - 0-10 verbal numeric rating [Score] - Reported</td><td>21-Jan-2024</td><td>2 {score}</td></tr></table></div>"
        },
        "status": "final",
        "code": {
          "coding": [
            {
              "code": "72514-3",
              "system": "http://loinc.org",
              "display": "Pain severity - 0-10 verbal numeric rating [Score] - Reported"
            }
          ]
        },
        "subject": {
          "reference": "urn:uuid:7b960ad8-6999-4e8d-8655-99550acf28d2",
          "display": "Louis Thibault"
        },
        "effectiveDateTime": "2024-01-21"
      }
    },
    {
      "fullUrl": "urn:uuid:abfe936f-ff62-4c19-87fa-dbae3ce1e2c4",
      "resource": {
        "resourceType": "Observation",
        "id": "abfe936f-ff62-4c19-87fa-dbae3ce1e2c4",
        "meta": {
          "profile": [
            "http://hl7.org/fhir/StructureDefinition/vitalsigns"
          ]
        },
        "category": [
          {
            "coding": [
              {
                "system": "http://terminology.hl7.org/CodeSystem/observation-category",
                "code": "vital-signs",
                "display": "Vital Signs"
              }
            ]
          }
        ],
        "valueQuantity": {
          "value": 69.5,
          "code": "kg",
          "unit": "kg"
        },
        "text": {
          "status": "generated",
          "div": "<div xmlns=\"http://www.w3.org/1999/xhtml\"><table class=\"hl7__ips\"><tr><th>Vital Sign</th><th>Date</th><th>Measurement</th></tr><tr><td>Body Weight</td><td>21-Jan-2024</td><td>69.5 kg</td></tr></table></div>"
        },
        "status": "final",
        "code": {
          "coding": [
            {
              "code": "29463-7",
              "system": "http://loinc.org",
              "display": "Body Weight"
            }
          ]
        },
        "subject": {
          "reference": "urn:uuid:7b960ad8-6999-4e8d-8655-99550acf28d2",
          "display": "Louis Thibault"
        },
        "effectiveDateTime": "2024-01-21"
      }
    },
    {
      "fullUrl": "urn:uuid:a7f5827d-0070-4870-af35-b2a09a8db23f",
      "resource": {
        "resourceType": "Observation",
        "id": "a7f5827d-0070-4870-af35-b2a09a8db23f",
        "meta": {
          "profile": [
            "http://hl7.org/fhir/StructureDefinition/vitalsigns"
          ]
        },
        "category": [
          {
            "coding": [
              {
                "system": "http://terminology.hl7.org/CodeSystem/observation-category",
                "code": "vital-signs",
                "display": "Vital Signs"
              }
            ]
          }
        ],
        "valueQuantity": {
          "value": 25.8,
          "code": "kg/m2",
          "unit": "kg/m2"
        },
        "text": {
          "status": "generated",
          "div": "<div xmlns=\"http://www.w3.org/1999/xhtml\"><table class=\"hl7__ips\"><tr><th>Vital Sign</th><th>Date</th><th>Measurement</th></tr><tr><td>Body mass index (BMI) [Ratio]</td><td>21-Jan-2024</td><td>25.8 kg/m2</td></tr></table></div>"
        },
        "status": "final",
        "code": {
          "coding": [
            {
              "code": "39156-5",
              "system": "http://loinc.org",
              "display": "Body mass index (BMI) [Ratio]"
            }
          ]
        },
        "subject": {
          "reference": "urn:uuid:7b960ad8-6999-4e8d-8655-99550acf28d2",
          "display": "Louis Thibault"
        },
        "effectiveDateTime": "2024-01-21"
      }
    },
    {
      "fullUrl": "urn:uuid:b3d9825c-3736-40e7-b731-0dae69a064b2",
      "resource": {
        "resourceType": "Observation",
        "id": "b3d9825c-3736-40e7-b731-0dae69a064b2",
        "meta": {
          "profile": [
            "http://hl7.org/fhir/StructureDefinition/vitalsigns"
          ]
        },
        "category": [
          {
            "coding": [
              {
                "system": "http://terminology.hl7.org/CodeSystem/observation-category",
                "code": "vital-signs",
                "display": "Vital Signs"
              }
            ]
          }
        ],
        "valueQuantity": {
          "value": 76,
          "code": "mm[Hg]",
          "unit": "mm[Hg]"
        },
        "text": {
          "status": "generated",
          "div": "<div xmlns=\"http://www.w3.org/1999/xhtml\"><table class=\"hl7__ips\"><tr><th>Vital Sign</th><th>Date</th><th>Measurement</th></tr><tr><td>Diastolic Blood Pressure</td><td>21-Jan-2024</td><td>76 mm[Hg]</td></tr></table></div>"
        },
        "status": "final",
        "code": {
          "coding": [
            {
              "code": "8462-4",
              "system": "http://loinc.org",
              "display": "Diastolic Blood Pressure"
            }
          ]
        },
        "subject": {
          "reference": "urn:uuid:7b960ad8-6999-4e8d-8655-99550acf28d2",
          "display": "Louis Thibault"
        },
        "effectiveDateTime": "2024-01-21"
      }
    },
    {
      "fullUrl": "urn:uuid:3f1ef192-2805-4896-860c-31a718cc2cab",
      "resource": {
        "resourceType": "Observation",
        "id": "3f1ef192-2805-4896-860c-31a718cc2cab",
        "meta": {
          "profile": [
            "http://hl7.org/fhir/StructureDefinition/vitalsigns"
          ]
        },
        "category": [
          {
            "coding": [
              {
                "system": "http://terminology.hl7.org/CodeSystem/observation-category",
                "code": "vital-signs",
                "display": "Vital Signs"
              }
            ]
          }
        ],
        "valueQuantity": {
          "value": 109,
          "code": "mm[Hg]",
          "unit": "mm[Hg]"
        },
        "text": {
          "status": "generated",
          "div": "<div xmlns=\"http://www.w3.org/1999/xhtml\"><table class=\"hl7__ips\"><tr><th>Vital Sign</th><th>Date</th><th>Measurement</th></tr><tr><td>Systolic Blood Pressure</td><td>21-Jan-2024</td><td>109 mm[Hg]</td></tr></table></div>"
        },
        "status": "final",
        "code": {
          "coding": [
            {
              "code": "8480-6",
              "system": "http://loinc.org",
              "display": "Systolic Blood Pressure"
            }
          ]
        },
        "subject": {
          "reference": "urn:uuid:7b960ad8-6999-4e8d-8655-99550acf28d2",
          "display": "Louis Thibault"
        },
        "effectiveDateTime": "2024-01-21"
      }
    },
    {
      "fullUrl": "urn:uuid:43c59728-3bec-401a-aaee-4b7748a156de",
      "resource": {
        "resourceType": "Observation",
        "id": "43c59728-3bec-401a-aaee-4b7748a156de",
        "meta": {
          "profile": [
            "http://hl7.org/fhir/StructureDefinition/vitalsigns"
          ]
        },
        "category": [
          {
            "coding": [
              {
                "system": "http://terminology.hl7.org/CodeSystem/observation-category",
                "code": "vital-signs",
                "display": "Vital Signs"
              }
            ]
          }
        ],
        "valueQuantity": {
          "value": 98,
          "code": "/min",
          "unit": "/min"
        },
        "text": {
          "status": "generated",
          "div": "<div xmlns=\"http://www.w3.org/1999/xhtml\"><table class=\"hl7__ips\"><tr><th>Vital Sign</th><th>Date</th><th>Measurement</th></tr><tr><td>Heart rate</td><td>21-Jan-2024</td><td>98 /min</td></tr></table></div>"
        },
        "status": "final",
        "code": {
          "coding": [
            {
              "code": "8867-4",
              "system": "http://loinc.org",
              "display": "Heart rate"
            }
          ]
        },
        "subject": {
          "reference": "urn:uuid:7b960ad8-6999-4e8d-8655-99550acf28d2",
          "display": "Louis Thibault"
        },
        "effectiveDateTime": "2024-01-21"
      }
    },
    {
      "fullUrl": "urn:uuid:bebe4558-bd8a-4a3b-816e-e052bcb2bf90",
      "resource": {
        "resourceType": "Observation",
        "id": "bebe4558-bd8a-4a3b-816e-e052bcb2bf90",
        "meta": {
          "profile": [
            "http://hl7.org/fhir/StructureDefinition/vitalsigns"
          ]
        },
        "category": [
          {
            "coding": [
              {
                "system": "http://terminology.hl7.org/CodeSystem/observation-category",
                "code": "vital-signs",
                "display": "Vital Signs"
              }
            ]
          }
        ],
        "valueQuantity": {
          "value": 15,
          "code": "/min",
          "unit": "/min"
        },
        "text": {
          "status": "generated",
          "div": "<div xmlns=\"http://www.w3.org/1999/xhtml\"><table class=\"hl7__ips\"><tr><th>Vital Sign</th><th>Date</th><th>Measurement</th></tr><tr><td>Respiratory rate</td><td>21-Jan-2024</td><td>15 /min</td></tr></table></div>"
        },
        "status": "final",
        "code": {
          "coding": [
            {
              "code": "9279-1",
              "system": "http://loinc.org",
              "display": "Respiratory rate"
            }
          ]
        },
        "subject": {
          "reference": "urn:uuid:7b960ad8-6999-4e8d-8655-99550acf28d2",
          "display": "Louis Thibault"
        },
        "effectiveDateTime": "2024-01-21"
      }
    },
    {
      "fullUrl": "urn:uuid:ccad82e2-84f8-4d4b-9ce5-ca5f35ae3355",
      "resource": {
        "resourceType": "Observation",
        "id": "ccad82e2-84f8-4d4b-9ce5-ca5f35ae3355",
        "meta": {
          "profile": [
            "http://hl7.eu/fhir/laboratory/StructureDefinition/Observation-resultslab-eu-lab"
          ]
        },
        "performer": [
          {
            "display": "The Central European Lab"
          }
        ],
        "category": [
          {
            "coding": [
              {
                "system": "http://terminology.hl7.org/CodeSystem/observation-category",
                "code": "laboratory"
              }
            ]
          }
        ],
        "code": {
          "coding": [
            {
              "code": "4548-4",
              "system": "http://loinc.org",
              "display": "Hemoglobin A1c/Hemoglobin.total in Blood"
            }
          ],
          "text": "Hemoglobin A1c/Hemoglobin.total in Blood"
        },
        "valueQuantity": {
          "system": "http://unitsofmeasure.org",
          "value": 6.3,
          "unit": "%",
          "code": "%"
        },
        "referenceRange": [
          {
            "low": {
              "value": 4.5,
              "code": "%",
              "system": "http://unitsofmeasure.org"
            }
          },
          {
            "high": {
              "value": 6.4,
              "code": "%",
              "system": "http://unitsofmeasure.org"
            }
          }
        ],
        "text": {
          "status": "generated",
          "div": "<div xmlns=\"http://www.w3.org/1999/xhtml\"><table class=\"hl7__eu__lab__report\"><tr><th>Test</th><th>27-Jan-2025</th><th>Reference&#xA0;Range</th><th>Unit</th></tr><tr><td>Hemoglobin A1c/Hemoglobin.total in Blood</td><td>6.3</td><td>4.5 - 6.4</td><td></td><td>%</td></tr></table></div>"
        },
        "status": "final",
        "subject": {
          "reference": "urn:uuid:7b960ad8-6999-4e8d-8655-99550acf28d2",
          "display": "Louis Thibault"
        },
        "effectiveDateTime": "2025-01-26T23:25:37Z"
      }
    },
    {
      "fullUrl": "urn:uuid:5f614732-340a-413a-b383-c70a2bd2c557",
      "resource": {
        "resourceType": "Observation",
        "id": "5f614732-340a-413a-b383-c70a2bd2c557",
        "meta": {
          "profile": [
            "http://hl7.eu/fhir/laboratory/StructureDefinition/Observation-resultslab-eu-lab"
          ]
        },
        "performer": [
          {
            "display": "The Central European Lab"
          }
        ],
        "category": [
          {
            "coding": [
              {
                "system": "http://terminology.hl7.org/CodeSystem/observation-category",
                "code": "laboratory"
              }
            ]
          }
        ],
        "code": {
          "coding": [
            {
              "code": "2339-0",
              "system": "http://loinc.org",
              "display": "Glucose [Mass/volume] in Blood"
            }
          ],
          "text": "Glucose [Mass/volume] in Blood"
        },
        "valueQuantity": {
          "system": "http://unitsofmeasure.org",
          "value": 93.9,
          "unit": "mg/dL",
          "code": "mg/dL"
        },
        "referenceRange": [
          {
            "low": {
              "value": 70,
              "code": "mg/dL",
              "system": "http://unitsofmeasure.org"
            }
          },
          {
            "high": {
              "value": 99,
              "code": "mg/dL",
              "system": "http://unitsofmeasure.org"
            }
          }
        ],
        "text": {
          "status": "generated",
          "div": "<div xmlns=\"http://www.w3.org/1999/xhtml\"><table class=\"hl7__eu__lab__report\"><tr><th>Test</th><th>27-Jan-2025</th><th>Reference&#xA0;Range</th><th>Unit</th></tr><tr><td>Glucose [Mass/volume] in Blood</td><td>93.9</td><td>70 - 99</td><td></td><td>mg/dL</td></tr></table></div>"
        },
        "status": "final",
        "subject": {
          "reference": "urn:uuid:7b960ad8-6999-4e8d-8655-99550acf28d2",
          "display": "Louis Thibault"
        },
        "effectiveDateTime": "2025-01-26T23:25:37Z"
      }
    },
    {
      "fullUrl": "urn:uuid:1efee374-a66b-4937-8833-aa4d38239e20",
      "resource": {
        "resourceType": "Observation",
        "id": "1efee374-a66b-4937-8833-aa4d38239e20",
        "meta": {
          "profile": [
            "http://hl7.eu/fhir/laboratory/StructureDefinition/Observation-resultslab-eu-lab"
          ]
        },
        "performer": [
          {
            "display": "The Central European Lab"
          }
        ],
        "category": [
          {
            "coding": [
              {
                "system": "http://terminology.hl7.org/CodeSystem/observation-category",
                "code": "laboratory"
              }
            ]
          }
        ],
        "code": {
          "coding": [
            {
              "code": "6299-2",
              "system": "http://loinc.org",
              "display": "Urea nitrogen [Mass/volume] in Blood"
            }
          ],
          "text": "Urea nitrogen [Mass/volume] in Blood"
        },
        "valueQuantity": {
          "system": "http://unitsofmeasure.org",
          "value": 7.1,
          "unit": "mg/dL",
          "code": "mg/dL"
        },
        "referenceRange": [
          {
            "low": {
              "value": 7,
              "code": "mg/dL",
              "system": "http://unitsofmeasure.org"
            }
          },
          {
            "high": {
              "value": 20,
              "code": "mg/dL",
              "system": "http://unitsofmeasure.org"
            }
          }
        ],
        "text": {
          "status": "generated",
          "div": "<div xmlns=\"http://www.w3.org/1999/xhtml\"><table class=\"hl7__eu__lab__report\"><tr><th>Test</th><th>27-Jan-2025</th><th>Reference&#xA0;Range</th><th>Unit</th></tr><tr><td>Urea nitrogen [Mass/volume] in Blood</td><td>7.1</td><td>7 - 20</td><td></td><td>mg/dL</td></tr></table></div>"
        },
        "status": "final",
        "subject": {
          "reference": "urn:uuid:7b960ad8-6999-4e8d-8655-99550acf28d2",
          "display": "Louis Thibault"
        },
        "effectiveDateTime": "2025-01-26T23:25:37Z"
      }
    },
    {
      "fullUrl": "urn:uuid:125511a6-5166-40dc-ab97-3a7f31c30872",
      "resource": {
        "resourceType": "Observation",
        "id": "125511a6-5166-40dc-ab97-3a7f31c30872",
        "meta": {
          "profile": [
            "http://hl7.eu/fhir/laboratory/StructureDefinition/Observation-resultslab-eu-lab"
          ]
        },
        "performer": [
          {
            "display": "The Central European Lab"
          }
        ],
        "category": [
          {
            "coding": [
              {
                "system": "http://terminology.hl7.org/CodeSystem/observation-category",
                "code": "laboratory"
              }
            ]
          }
        ],
        "code": {
          "coding": [
            {
              "code": "38483-4",
              "system": "http://loinc.org",
              "display": "Creatinine [Mass/volume] in Blood"
            }
          ],
          "text": "Creatinine [Mass/volume] in Blood"
        },
        "valueQuantity": {
          "system": "http://unitsofmeasure.org",
          "value": 0.8,
          "unit": "mg/dL",
          "code": "mg/dL"
        },
        "referenceRange": [
          {
            "low": {
              "value": 0.6,
              "code": "mg/dL",
              "system": "http://unitsofmeasure.org"
            }
          },
          {
            "high": {
              "value": 1.3,
              "code": "mg/dL",
              "system": "http://unitsofmeasure.org"
            }
          }
        ],
        "text": {
          "status": "generated",
          "div": "<div xmlns=\"http://www.w3.org/1999/xhtml\"><table class=\"hl7__eu__lab__report\"><tr><th>Test</th><th>27-Jan-2025</th><th>Reference&#xA0;Range</th><th>Unit</th></tr><tr><td>Creatinine [Mass/volume] in Blood</td><td>0.8</td><td>0.6 - 1.3</td><td></td><td>mg/dL</td></tr></table></div>"
        },
        "status": "final",
        "subject": {
          "reference": "urn:uuid:7b960ad8-6999-4e8d-8655-99550acf28d2",
          "display": "Louis Thibault"
        },
        "effectiveDateTime": "2025-01-26T23:25:37Z"
      }
    },
    {
      "fullUrl": "urn:uuid:aca4fd57-d669-4888-b2d2-1694ada93992",
      "resource": {
        "resourceType": "Observation",
        "id": "aca4fd57-d669-4888-b2d2-1694ada93992",
        "meta": {
          "profile": [
            "http://hl7.eu/fhir/laboratory/StructureDefinition/Observation-resultslab-eu-lab"
          ]
        },
        "performer": [
          {
            "display": "The Central European Lab"
          }
        ],
        "category": [
          {
            "coding": [
              {
                "system": "http://terminology.hl7.org/CodeSystem/observation-category",
                "code": "laboratory"
              }
            ]
          }
        ],
        "code": {
          "coding": [
            {
              "code": "49765-1",
              "system": "http://loinc.org",
              "display": "Calcium [Mass/volume] in Blood"
            }
          ],
          "text": "Calcium [Mass/volume] in Blood"
        },
        "valueQuantity": {
          "system": "http://unitsofmeasure.org",
          "value": 8.5,
          "unit": "mg/dL",
          "code": "mg/dL"
        },
        "referenceRange": [
          {
            "low": {
              "value": 8.5,
              "code": "mg/dL",
              "system": "http://unitsofmeasure.org"
            }
          },
          {
            "high": {
              "value": 10.5,
              "code": "mg/dL",
              "system": "http://unitsofmeasure.org"
            }
          }
        ],
        "text": {
          "status": "generated",
          "div": "<div xmlns=\"http://www.w3.org/1999/xhtml\"><table class=\"hl7__eu__lab__report\"><tr><th>Test</th><th>27-Jan-2025</th><th>Reference&#xA0;Range</th><th>Unit</th></tr><tr><td>Calcium [Mass/volume] in Blood</td><td>8.5</td><td>8.5 - 10.5</td><td></td><td>mg/dL</td></tr></table></div>"
        },
        "status": "final",
        "subject": {
          "reference": "urn:uuid:7b960ad8-6999-4e8d-8655-99550acf28d2",
          "display": "Louis Thibault"
        },
        "effectiveDateTime": "2025-01-26T23:25:37Z"
      }
    },
    {
      "fullUrl": "urn:uuid:9864bc22-df02-419c-a395-ecd061483f0a",
      "resource": {
        "resourceType": "Observation",
        "id": "9864bc22-df02-419c-a395-ecd061483f0a",
        "meta": {
          "profile": [
            "http://hl7.eu/fhir/laboratory/StructureDefinition/Observation-resultslab-eu-lab"
          ]
        },
        "performer": [
          {
            "display": "The Central European Lab"
          }
        ],
        "category": [
          {
            "coding": [
              {
                "system": "http://terminology.hl7.org/CodeSystem/observation-category",
                "code": "laboratory"
              }
            ]
          }
        ],
        "code": {
          "coding": [
            {
              "code": "2947-0",
              "system": "http://loinc.org",
              "display": "Sodium [Moles/volume] in Blood"
            }
          ],
          "text": "Sodium [Moles/volume] in Blood"
        },
        "valueQuantity": {
          "system": "http://unitsofmeasure.org",
          "value": 142,
          "unit": "mmol/L",
          "code": "mmol/L"
        },
        "referenceRange": [
          {
            "low": {
              "value": 135,
              "code": "mmol/L",
              "system": "http://unitsofmeasure.org"
            }
          },
          {
            "high": {
              "value": 145,
              "code": "mmol/L",
              "system": "http://unitsofmeasure.org"
            }
          }
        ],
        "text": {
          "status": "generated",
          "div": "<div xmlns=\"http://www.w3.org/1999/xhtml\"><table class=\"hl7__eu__lab__report\"><tr><th>Test</th><th>27-Jan-2025</th><th>Reference&#xA0;Range</th><th>Unit</th></tr><tr><td>Sodium [Moles/volume] in Blood</td><td>142.0</td><td>135 - 145</td><td></td><td>mmol/L</td></tr></table></div>"
        },
        "status": "final",
        "subject": {
          "reference": "urn:uuid:7b960ad8-6999-4e8d-8655-99550acf28d2",
          "display": "Louis Thibault"
        },
        "effectiveDateTime": "2025-01-26T23:25:37Z"
      }
    },
    {
      "fullUrl": "urn:uuid:dab697b1-17ff-4d18-b8e9-38393c013c5f",
      "resource": {
        "resourceType": "Observation",
        "id": "dab697b1-17ff-4d18-b8e9-38393c013c5f",
        "meta": {
          "profile": [
            "http://hl7.eu/fhir/laboratory/StructureDefinition/Observation-resultslab-eu-lab"
          ]
        },
        "performer": [
          {
            "display": "The Central European Lab"
          }
        ],
        "category": [
          {
            "coding": [
              {
                "system": "http://terminology.hl7.org/CodeSystem/observation-category",
                "code": "laboratory"
              }
            ]
          }
        ],
        "code": {
          "coding": [
            {
              "code": "6298-4",
              "system": "http://loinc.org",
              "display": "Potassium [Moles/volume] in Blood"
            }
          ],
          "text": "Potassium [Moles/volume] in Blood"
        },
        "valueQuantity": {
          "system": "http://unitsofmeasure.org",
          "value": 5.2,
          "unit": "mmol/L",
          "code": "mmol/L"
        },
        "referenceRange": [
          {
            "low": {
              "value": 3.5,
              "code": "mmol/L",
              "system": "http://unitsofmeasure.org"
            }
          },
          {
            "high": {
              "value": 5,
              "code": "mmol/L",
              "system": "http://unitsofmeasure.org"
            }
          }
        ],
        "interpretation": [
          {
            "coding": [
              {
                "code": "H",
                "system": "http://terminology.hl7.org/CodeSystem/v3-ObservationInterpretation",
                "display": "High"
              }
            ]
          }
        ],
        "text": {
          "status": "generated",
          "div": "<div xmlns=\"http://www.w3.org/1999/xhtml\"><table class=\"hl7__eu__lab__report\"><tr><th>Test</th><th>27-Jan-2025</th><th>Reference&#xA0;Range</th><th>Unit</th></tr><tr><td>Potassium [Moles/volume] in Blood</td><td>5.2</td><td>3.5 - 5</td><td>H</td><td>mmol/L</td></tr></table></div>"
        },
        "status": "final",
        "subject": {
          "reference": "urn:uuid:7b960ad8-6999-4e8d-8655-99550acf28d2",
          "display": "Louis Thibault"
        },
        "effectiveDateTime": "2025-01-26T23:25:37Z"
      }
    },
    {
      "fullUrl": "urn:uuid:797baac8-e1e9-4b67-b050-4833e41e0d59",
      "resource": {
        "resourceType": "Observation",
        "id": "797baac8-e1e9-4b67-b050-4833e41e0d59",
        "meta": {
          "profile": [
            "http://hl7.eu/fhir/laboratory/StructureDefinition/Observation-resultslab-eu-lab"
          ]
        },
        "performer": [
          {
            "display": "The Central European Lab"
          }
        ],
        "category": [
          {
            "coding": [
              {
                "system": "http://terminology.hl7.org/CodeSystem/observation-category",
                "code": "laboratory"
              }
            ]
          }
        ],
        "code": {
          "coding": [
            {
              "code": "2069-3",
              "system": "http://loinc.org",
              "display": "Chloride [Moles/volume] in Blood"
            }
          ],
          "text": "Chloride [Moles/volume] in Blood"
        },
        "valueQuantity": {
          "system": "http://unitsofmeasure.org",
          "value": 110,
          "unit": "mmol/L",
          "code": "mmol/L"
        },
        "referenceRange": [
          {
            "low": {
              "value": 98,
              "code": "mmol/L",
              "system": "http://unitsofmeasure.org"
            }
          },
          {
            "high": {
              "value": 108,
              "code": "mmol/L",
              "system": "http://unitsofmeasure.org"
            }
          }
        ],
        "interpretation": [
          {
            "coding": [
              {
                "code": "H",
                "system": "http://terminology.hl7.org/CodeSystem/v3-ObservationInterpretation",
                "display": "High"
              }
            ]
          }
        ],
        "text": {
          "status": "generated",
          "div": "<div xmlns=\"http://www.w3.org/1999/xhtml\"><table class=\"hl7__eu__lab__report\"><tr><th>Test</th><th>27-Jan-2025</th><th>Reference&#xA0;Range</th><th>Unit</th></tr><tr><td>Chloride [Moles/volume] in Blood</td><td>110.0</td><td>98 - 108</td><td>H</td><td>mmol/L</td></tr></table></div>"
        },
        "status": "final",
        "subject": {
          "reference": "urn:uuid:7b960ad8-6999-4e8d-8655-99550acf28d2",
          "display": "Louis Thibault"
        },
        "effectiveDateTime": "2025-01-26T23:25:37Z"
      }
    },
    {
      "fullUrl": "urn:uuid:1be04bc7-ada4-4d59-b6f2-cc192b48d32b",
      "resource": {
        "resourceType": "Observation",
        "id": "1be04bc7-ada4-4d59-b6f2-cc192b48d32b",
        "meta": {
          "profile": [
            "http://hl7.eu/fhir/laboratory/StructureDefinition/Observation-resultslab-eu-lab"
          ]
        },
        "performer": [
          {
            "display": "The Central European Lab"
          }
        ],
        "category": [
          {
            "coding": [
              {
                "system": "http://terminology.hl7.org/CodeSystem/observation-category",
                "code": "laboratory"
              }
            ]
          }
        ],
        "code": {
          "coding": [
            {
              "code": "20565-8",
              "system": "http://loinc.org",
              "display": "Carbon dioxide, total [Moles/volume] in Blood"
            }
          ],
          "text": "Carbon dioxide, total [Moles/volume] in Blood"
        },
        "valueQuantity": {
          "system": "http://unitsofmeasure.org",
          "value": 24.8,
          "unit": "mmol/L",
          "code": "mmol/L"
        },
        "referenceRange": [
          {
            "low": {
              "value": 22,
              "code": "mmol/L",
              "system": "http://unitsofmeasure.org"
            }
          },
          {
            "high": {
              "value": 32,
              "code": "mmol/L",
              "system": "http://unitsofmeasure.org"
            }
          }
        ],
        "text": {
          "status": "generated",
          "div": "<div xmlns=\"http://www.w3.org/1999/xhtml\"><table class=\"hl7__eu__lab__report\"><tr><th>Test</th><th>27-Jan-2025</th><th>Reference&#xA0;Range</th><th>Unit</th></tr><tr><td>Carbon dioxide, total [Moles/volume] in Blood</td><td>24.8</td><td>22 - 32</td><td></td><td>mmol/L</td></tr></table></div>"
        },
        "status": "final",
        "subject": {
          "reference": "urn:uuid:7b960ad8-6999-4e8d-8655-99550acf28d2",
          "display": "Louis Thibault"
        },
        "effectiveDateTime": "2025-01-26T23:25:37Z"
      }
    },
    {
      "fullUrl": "urn:uuid:e42b2930-454d-48c1-8fd3-285e18870b67",
      "resource": {
        "resourceType": "Observation",
        "id": "e42b2930-454d-48c1-8fd3-285e18870b67",
        "meta": {
          "profile": [
            "http://hl7.eu/fhir/laboratory/StructureDefinition/Observation-resultslab-eu-lab"
          ]
        },
        "performer": [
          {
            "display": "The Central European Lab"
          }
        ],
        "category": [
          {
            "coding": [
              {
                "system": "http://terminology.hl7.org/CodeSystem/observation-category",
                "code": "laboratory"
              }
            ]
          }
        ],
        "code": {
          "coding": [
            {
              "code": "2093-3",
              "system": "http://loinc.org",
              "display": "Cholesterol [Mass/volume] in Serum or Plasma"
            }
          ],
          "text": "Cholesterol [Mass/volume] in Serum or Plasma"
        },
        "valueQuantity": {
          "system": "http://unitsofmeasure.org",
          "value": 199,
          "unit": "mg/dL",
          "code": "mg/dL"
        },
        "referenceRange": [
          {
            "low": {
              "value": 125,
              "code": "mg/dL",
              "system": "http://unitsofmeasure.org"
            }
          },
          {
            "high": {
              "value": 200,
              "code": "mg/dL",
              "system": "http://unitsofmeasure.org"
            }
          }
        ],
        "text": {
          "status": "generated",
          "div": "<div xmlns=\"http://www.w3.org/1999/xhtml\"><table class=\"hl7__eu__lab__report\"><tr><th>Test</th><th>27-Jan-2025</th><th>Reference&#xA0;Range</th><th>Unit</th></tr><tr><td>Cholesterol [Mass/volume] in Serum or Plasma</td><td>199.0</td><td>125 - 200</td><td></td><td>mg/dL</td></tr></table></div>"
        },
        "status": "final",
        "subject": {
          "reference": "urn:uuid:7b960ad8-6999-4e8d-8655-99550acf28d2",
          "display": "Louis Thibault"
        },
        "effectiveDateTime": "2025-01-26T23:25:37Z"
      }
    },
    {
      "fullUrl": "urn:uuid:b210d834-8a3b-408d-9637-466db114208d",
      "resource": {
        "resourceType": "Observation",
        "id": "b210d834-8a3b-408d-9637-466db114208d",
        "meta": {
          "profile": [
            "http://hl7.eu/fhir/laboratory/StructureDefinition/Observation-resultslab-eu-lab"
          ]
        },
        "performer": [
          {
            "display": "The Central European Lab"
          }
        ],
        "category": [
          {
            "coding": [
              {
                "system": "http://terminology.hl7.org/CodeSystem/observation-category",
                "code": "laboratory"
              }
            ]
          }
        ],
        "code": {
          "coding": [
            {
              "code": "2571-8",
              "system": "http://loinc.org",
              "display": "Triglyceride [Mass/volume] in Serum or Plasma"
            }
          ],
          "text": "Triglyceride [Mass/volume] in Serum or Plasma"
        },
        "valueQuantity": {
          "system": "http://unitsofmeasure.org",
          "value": 135.1,
          "unit": "mg/dL",
          "code": "mg/dL"
        },
        "referenceRange": [
          {
            "low": {
              "value": 0,
              "code": "mg/dL",
              "system": "http://unitsofmeasure.org"
            }
          },
          {
            "high": {
              "value": 150,
              "code": "mg/dL",
              "system": "http://unitsofmeasure.org"
            }
          }
        ],
        "text": {
          "status": "generated",
          "div": "<div xmlns=\"http://www.w3.org/1999/xhtml\"><table class=\"hl7__eu__lab__report\"><tr><th>Test</th><th>27-Jan-2025</th><th>Reference&#xA0;Range</th><th>Unit</th></tr><tr><td>Triglyceride [Mass/volume] in Serum or Plasma</td><td>135.1</td><td>0 - 150</td><td></td><td>mg/dL</td></tr></table></div>"
        },
        "status": "final",
        "subject": {
          "reference": "urn:uuid:7b960ad8-6999-4e8d-8655-99550acf28d2",
          "display": "Louis Thibault"
        },
        "effectiveDateTime": "2025-01-26T23:25:37Z"
      }
    },
    {
      "fullUrl": "urn:uuid:9397eee0-c621-4604-88bf-b0aab2377da4",
      "resource": {
        "resourceType": "Observation",
        "id": "9397eee0-c621-4604-88bf-b0aab2377da4",
        "meta": {
          "profile": [
            "http://hl7.eu/fhir/laboratory/StructureDefinition/Observation-resultslab-eu-lab"
          ]
        },
        "performer": [
          {
            "display": "The Central European Lab"
          }
        ],
        "category": [
          {
            "coding": [
              {
                "system": "http://terminology.hl7.org/CodeSystem/observation-category",
                "code": "laboratory"
              }
            ]
          }
        ],
        "code": {
          "coding": [
            {
              "code": "18262-6",
              "system": "http://loinc.org",
              "display": "Cholesterol in LDL [Mass/volume] in Serum or Plasma by Direct assay"
            }
          ],
          "text": "Cholesterol in LDL [Mass/volume] in Serum or Plasma by Direct assay"
        },
        "valueQuantity": {
          "system": "http://unitsofmeasure.org",
          "value": 139.5,
          "unit": "mg/dL",
          "code": "mg/dL"
        },
        "referenceRange": [
          {
            "low": {
              "value": 0,
              "code": "mg/dL",
              "system": "http://unitsofmeasure.org"
            }
          },
          {
            "high": {
              "value": 130,
              "code": "mg/dL",
              "system": "http://unitsofmeasure.org"
            }
          }
        ],
        "interpretation": [
          {
            "coding": [
              {
                "code": "H",
                "system": "http://terminology.hl7.org/CodeSystem/v3-ObservationInterpretation",
                "display": "High"
              }
            ]
          }
        ],
        "text": {
          "status": "generated",
          "div": "<div xmlns=\"http://www.w3.org/1999/xhtml\"><table class=\"hl7__eu__lab__report\"><tr><th>Test</th><th>27-Jan-2025</th><th>Reference&#xA0;Range</th><th>Unit</th></tr><tr><td>Cholesterol in LDL [Mass/volume] in Serum or Plasma by Direct assay</td><td>139.5</td><td>0 - 130</td><td>H</td><td>mg/dL</td></tr></table></div>"
        },
        "status": "final",
        "subject": {
          "reference": "urn:uuid:7b960ad8-6999-4e8d-8655-99550acf28d2",
          "display": "Louis Thibault"
        },
        "effectiveDateTime": "2025-01-26T23:25:37Z"
      }
    },
    {
      "fullUrl": "urn:uuid:0ffee5f8-a30d-49f3-86e2-8d1eb55c9d54",
      "resource": {
        "resourceType": "Observation",
        "id": "0ffee5f8-a30d-49f3-86e2-8d1eb55c9d54",
        "meta": {
          "profile": [
            "http://hl7.eu/fhir/laboratory/StructureDefinition/Observation-resultslab-eu-lab"
          ]
        },
        "performer": [
          {
            "display": "The Central European Lab"
          }
        ],
        "category": [
          {
            "coding": [
              {
                "system": "http://terminology.hl7.org/CodeSystem/observation-category",
                "code": "laboratory"
              }
            ]
          }
        ],
        "code": {
          "coding": [
            {
              "code": "2085-9",
              "system": "http://loinc.org",
              "display": "Cholesterol in HDL [Mass/volume] in Serum or Plasma"
            }
          ],
          "text": "Cholesterol in HDL [Mass/volume] in Serum or Plasma"
        },
        "valueQuantity": {
          "system": "http://unitsofmeasure.org",
          "value": 32.4,
          "unit": "mg/dL",
          "code": "mg/dL"
        },
        "referenceRange": [
          {
            "low": {
              "value": 40,
              "code": "mg/dL",
              "system": "http://unitsofmeasure.org"
            }
          },
          {
            "high": {
              "value": 60,
              "code": "mg/dL",
              "system": "http://unitsofmeasure.org"
            }
          }
        ],
        "interpretation": [
          {
            "coding": [
              {
                "code": "L",
                "system": "http://terminology.hl7.org/CodeSystem/v3-ObservationInterpretation",
                "display": "Low"
              }
            ]
          }
        ],
        "text": {
          "status": "generated",
          "div": "<div xmlns=\"http://www.w3.org/1999/xhtml\"><table class=\"hl7__eu__lab__report\"><tr><th>Test</th><th>27-Jan-2025</th><th>Reference&#xA0;Range</th><th>Unit</th></tr><tr><td>Cholesterol in HDL [Mass/volume] in Serum or Plasma</td><td>32.4</td><td>40 - 60</td><td>L</td><td>mg/dL</td></tr></table></div>"
        },
        "status": "final",
        "subject": {
          "reference": "urn:uuid:7b960ad8-6999-4e8d-8655-99550acf28d2",
          "display": "Louis Thibault"
        },
        "effectiveDateTime": "2025-01-26T23:25:37Z"
      }
    },
    {
      "fullUrl": "urn:uuid:4449dd70-70ad-4fe2-be47-38c0afe55495",
      "resource": {
        "resourceType": "DeviceUseStatement",
        "id": "4449dd70-70ad-4fe2-be47-38c0afe55495",
        "meta": {
          "profile": [
            "http://hl7.eu/fhir/eps/StructureDefinition/deviceUseStatement-eu-eps"
          ]
        },
        "timingPeriod": {
          "start": "1997-08-31"
        },
        "text": {
          "status": "generated",
          "div": "<div xmlns=\"http://www.w3.org/1999/xhtml\"><table class=\"hl7__ips\"><tr><td>Manual wheelchair (physical object)</td><td><span class=\"nb\">31-Aug-1997</span></td></tr></table></div>"
        },
        "status": "active",
        "device": {
          "reference": "urn:uuid:e2447d42-5971-4f0a-9152-b3ffcbf60b2b",
          "display": "Manual wheelchair (physical object)"
        },
        "subject": {
          "reference": "urn:uuid:7b960ad8-6999-4e8d-8655-99550acf28d2",
          "display": "Louis Thibault"
        }
      }
    },
    {
      "fullUrl": "urn:uuid:e2447d42-5971-4f0a-9152-b3ffcbf60b2b",
      "resource": {
        "resourceType": "Device",
        "id": "e2447d42-5971-4f0a-9152-b3ffcbf60b2b",
        "meta": {
          "profile": [
            "http://hl7.eu/fhir/eps/StructureDefinition/device-eu-eps"
          ]
        },
        "udiCarrier": [
          {
            "id": "(01)55981903018253(11)970811(17)220826(10)78394009479633(21)777365"
          }
        ],
        "status": "active",
        "patient": {
          "reference": "urn:uuid:7b960ad8-6999-4e8d-8655-99550acf28d2",
          "display": "Louis Thibault"
        },
        "type": {
          "coding": [
            {
              "code": "228869008",
              "system": "http://snomed.info/sct",
              "display": "Manual wheelchair (physical object)"
            }
          ]
        }
      }
    },
    {
      "fullUrl": "urn:uuid:adb6a752-22b8-4a8d-92b9-e723203a1aca",
      "resource": {
        "resourceType": "DeviceUseStatement",
        "id": "adb6a752-22b8-4a8d-92b9-e723203a1aca",
        "meta": {
          "profile": [
            "http://hl7.eu/fhir/eps/StructureDefinition/deviceUseStatement-eu-eps"
          ]
        },
        "timingPeriod": {
          "start": "1997-08-31"
        },
        "text": {
          "status": "generated",
          "div": "<div xmlns=\"http://www.w3.org/1999/xhtml\"><table class=\"hl7__ips\"><tr><td>Wheelchair accessory (physical object)</td><td><span class=\"nb\">31-Aug-1997</span></td></tr></table></div>"
        },
        "status": "active",
        "device": {
          "reference": "urn:uuid:e2e55e87-3329-4274-bf2c-78014704f05d",
          "display": "Wheelchair accessory (physical object)"
        },
        "subject": {
          "reference": "urn:uuid:7b960ad8-6999-4e8d-8655-99550acf28d2",
          "display": "Louis Thibault"
        }
      }
    },
    {
      "fullUrl": "urn:uuid:e2e55e87-3329-4274-bf2c-78014704f05d",
      "resource": {
        "resourceType": "Device",
        "id": "e2e55e87-3329-4274-bf2c-78014704f05d",
        "meta": {
          "profile": [
            "http://hl7.eu/fhir/eps/StructureDefinition/device-eu-eps"
          ]
        },
        "udiCarrier": [
          {
            "id": "(01)36942151322344(11)970811(17)220826(10)72109416274(21)1869791783087995576"
          }
        ],
        "status": "active",
        "patient": {
          "reference": "urn:uuid:7b960ad8-6999-4e8d-8655-99550acf28d2",
          "display": "Louis Thibault"
        },
        "type": {
          "coding": [
            {
              "code": "705417005",
              "system": "http://snomed.info/sct",
              "display": "Wheelchair accessory (physical object)"
            }
          ]
        }
      }
    },
    {
      "fullUrl": "urn:uuid:44f06480-c4bd-48a6-9519-10b26abff13a",
      "resource": {
        "resourceType": "DeviceUseStatement",
        "id": "44f06480-c4bd-48a6-9519-10b26abff13a",
        "meta": {
          "profile": [
            "http://hl7.eu/fhir/eps/StructureDefinition/deviceUseStatement-eu-eps"
          ]
        },
        "timingPeriod": {
          "start": "1977-11-20"
        },
        "text": {
          "status": "generated",
          "div": "<div xmlns=\"http://www.w3.org/1999/xhtml\"><table class=\"hl7__ips\"><tr><td>Blood glucose meter (physical object)</td><td><span class=\"nb\">20-Nov-1977</span></td></tr></table></div>"
        },
        "status": "active",
        "device": {
          "reference": "urn:uuid:346611a5-4eeb-4b74-9998-f6c24c3426fd",
          "display": "Blood glucose meter (physical object)"
        },
        "subject": {
          "reference": "urn:uuid:7b960ad8-6999-4e8d-8655-99550acf28d2",
          "display": "Louis Thibault"
        }
      }
    },
    {
      "fullUrl": "urn:uuid:346611a5-4eeb-4b74-9998-f6c24c3426fd",
      "resource": {
        "resourceType": "Device",
        "id": "346611a5-4eeb-4b74-9998-f6c24c3426fd",
        "meta": {
          "profile": [
            "http://hl7.eu/fhir/eps/StructureDefinition/device-eu-eps"
          ]
        },
        "udiCarrier": [
          {
            "id": "(01)71367416838819(11)771031(17)021115(10)528893716(21)47563949501"
          }
        ],
        "status": "active",
        "patient": {
          "reference": "urn:uuid:7b960ad8-6999-4e8d-8655-99550acf28d2",
          "display": "Louis Thibault"
        },
        "type": {
          "coding": [
            {
              "code": "337414009",
              "system": "http://snomed.info/sct",
              "display": "Blood glucose meter (physical object)"
            }
          ]
        }
      }
    },
    {
      "fullUrl": "urn:uuid:a4cacb0d-d96d-4797-b3d6-533a568b8c51",
      "resource": {
        "resourceType": "Device",
        "id": "a4cacb0d-d96d-4797-b3d6-533a568b8c51",
        "deviceName": [
          {
            "name": "SYNDERAI Synthetic Generator",
            "type": "manufacturer-name"
          }
        ],
        "version": [
          {
            "value": "5.0"
          }
        ],
        "text": {
          "status": "generated",
          "div": "<div xmlns=\"http://www.w3.org/1999/xhtml\">SYNDERAI Synthetic Generator v5.0</div>"
        },
        "status": "active",
        "distinctIdentifier": "synderai-generator-50",
        "manufacturer": "SYNDERAI Project"
      }
    },
    {
      "fullUrl": "urn:uuid:bee4be7a-6b6f-455e-9ac8-a7340ffec00a",
      "resource": {
        "resourceType": "Provenance",
        "id": "bee4be7a-6b6f-455e-9ac8-a7340ffec00a",
        "target": [
          {
            "reference": "Patient/7b960ad8-6999-4e8d-8655-99550acf28d2"
          },
          {
            "reference": "Bundle/e4a5e4f9-335d-4218-9728-b2aefd3a0357"
          },
          {
            "reference": "Composition/6c04a94c-82e4-47ec-a163-bd159ef2501a"
          },
          {
            "reference": "PractitionerRole/14fc7ebc-04e5-4275-9806-77bb0e1d7414"
          },
          {
            "reference": "Organization/94e84202-8bf7-454a-a566-9dd684f83fce"
          },
          {
            "reference": "Practitioner/f58aed18-e823-4a9c-a9d4-c2dea3b7c4d3"
          }
        ],
        "activity": {
          "text": "Synthetic Example Data Generation"
        },
        "policy": [
          "https://synderai.net/synderai-synthetic-data-policy"
        ],
        "agent": [
          {
            "type": {
              "text": "author"
            },
            "who": {
              "reference": "Device/a4cacb0d-d96d-4797-b3d6-533a568b8c51"
            }
          }
        ],
        "reason": [
          {
            "text": "Interoperability Testing and Training (non-clinical use)"
          }
        ],
        "text": {
          "status": "generated",
          "div": "<div xmlns=\"http://www.w3.org/1999/xhtml\">Provenance for SYNDERAI Synthetic Example Data Resource</div>"
        },
        "recorded": "2025-01-26T23:25:37Z"
      }
    }
  ],
  "type": "document",
  "timestamp": "2025-01-26T23:25:37Z"
}
