{
  "resourceType": "Bundle",
  "id": "67469093-ca3a-4d86-bfc6-6e6667763f24",
  "meta": {
    "profile": [
      "http://hl7.eu/fhir/eps/StructureDefinition/bundle-eu-eps"
    ]
  },
  "identifier": {
    "assigner": {
      "display": "HL7 Europe"
    },
    "system": "urn:oid:2.16.840.1.113883.2.51.999",
    "value": "17c9cc55-279b-42d8-9087-4584edd22a58"
  },
  "entry": [
    {
      "fullUrl": "urn:uuid:4ac4d37c-8d4e-4da1-a79e-3465e4402422",
      "resource": {
        "resourceType": "Composition",
        "id": "4ac4d37c-8d4e-4da1-a79e-3465e4402422",
        "meta": {
          "security": [
            {
              "system": "http://terminology.hl7.org/CodeSystem/v3-ActReason",
              "code": "HTEST"
            },
            {
              "system": "http://terminology.hl7.org/CodeSystem/v3-ActReason",
              "code": "TRAIN"
            }
          ],
          "tag": [
            {
              "system": "https://synderai.net/fhir/CodeSystem/tags",
              "code": "synthetic",
              "display": "SYNDERAI Synthetic data"
            }
          ],
          "profile": [
            "http://hl7.eu/fhir/eps/StructureDefinition/composition-eu-eps"
          ]
        },
        "identifier": {
          "assigner": {
            "display": "HL7 Europe"
          },
          "system": "urn:oid:2.16.840.1.113883.2.51.999",
          "value": "b46b82a5-9656-4356-9e54-cab53efe10a9"
        },
        "type": {
          "coding": [
            {
              "code": "60591-5",
              "system": "http://loinc.org",
              "display": "Patient summary Document"
            }
          ],
          "text": "Patient summary Document"
        },
        "author": [
          {
            "reference": "urn:uuid:1146de30-105a-450e-b76d-37c327cf4382"
          }
        ],
        "section": [
          {
            "text": {
              "status": "generated",
              "div": "<div xmlns=\"http://www.w3.org/1999/xhtml\"><table class=\"hl7__ips\"><tr><td>No known problems or disabilities</td></tr></table></div>"
            },
            "entry": [
              {
                "reference": "urn:uuid:140f17fa-543e-4d47-b6cf-ccb3d587dadc"
              }
            ],
            "code": {
              "coding": [
                {
                  "system": "http://loinc.org",
                  "code": "11450-4",
                  "display": "Problem list - Reported"
                }
              ]
            },
            "title": "Problem list"
          },
          {
            "text": {
              "status": "generated",
              "div": "<div xmlns=\"http://www.w3.org/1999/xhtml\"><table class=\"hl7__ips\"><tr><td>No known medications</td></tr></table></div>"
            },
            "entry": [
              {
                "reference": "urn:uuid:7e3e466a-34a0-480d-8191-a97f33f8e9ea"
              }
            ],
            "code": {
              "coding": [
                {
                  "system": "http://loinc.org",
                  "code": "10160-0",
                  "display": "History of Medication use Narrative"
                }
              ]
            },
            "title": "Medication list"
          },
          {
            "text": {
              "status": "generated",
              "div": "<div xmlns=\"http://www.w3.org/1999/xhtml\"><table class=\"hl7__ips\"><tr><th>Vaccine</th><th>Date</th></tr><tr><td>Hepatitis B virus antigen only vaccine product</td><td><span class=\"nb\">19-Feb-2025</span></td></tr><tr><td>Influenza virus antigen only vaccine product</td><td><span class=\"nb\">19-Feb-2025</span></td></tr><tr><td>SARS-CoV-2 mRNA vaccine</td><td><span class=\"nb\">26-May-2021</span></td></tr><tr><td>Neisseria meningitidis antigen-containing vaccine product</td><td><span class=\"nb\">06-Jan-2021</span></td></tr><tr><td>Human papillomavirus 6</td><td><span class=\"nb\">20-Dec-2017</span></td></tr><tr><td>Bordetella pertussis and Clostridium tetani and Corynebacterium diphtheriae antigens only vaccine product</td><td><span class=\"nb\">09-Dec-2015</span></td></tr></table></div>"
            },
            "entry": [
              {
                "reference": "urn:uuid:46fa0eb9-620f-4bcc-a1b1-9822c7321eba"
              }
            ],
            "code": {
              "coding": [
                {
                  "system": "http://loinc.org",
                  "code": "11369-6",
                  "display": "History of Immunization note"
                }
              ]
            },
            "title": "Immunizations list"
          },
          {
            "text": {
              "status": "generated",
              "div": "<div xmlns=\"http://www.w3.org/1999/xhtml\"><table class=\"hl7__ips\"><tr><th>Procedure</th><th>Date</th><th>Reason</th></tr><tr><td>Depression screening</td><td><span class=\"nb\">19-Feb-2025</span></td><td>-</td></tr><tr><td>Medication reconciliation</td><td><span class=\"nb\">19-Feb-2025</span></td><td>-</td></tr><tr><td>Assessment of health and social care needs</td><td><span class=\"nb\">19-Feb-2025</span></td><td>-</td></tr><tr><td>Assessment of anxiety</td><td><span class=\"nb\">19-Feb-2025</span></td><td>-</td></tr><tr><td>Screening for domestic abuse</td><td><span class=\"nb\">19-Feb-2025</span></td><td>-</td></tr><tr><td>Depression screening using Patient Health Questionnaire Two-Item score (procedure)</td><td><span class=\"nb\">19-Feb-2025</span></td><td>-</td></tr></table></div>"
            },
            "entry": [
              {
                "reference": "urn:uuid:3326319c-4cc2-452c-b116-051459cd7211"
              }
            ],
            "code": {
              "coding": [
                {
                  "system": "http://loinc.org",
                  "code": "47519-4",
                  "display": "History of Procedures Document"
                }
              ]
            },
            "title": "Procedure History list"
          },
          {
            "text": {
              "status": "generated",
              "div": "<div xmlns=\"http://www.w3.org/1999/xhtml\"><table class=\"hl7__ips\"><tr><th>Allergy/Intolerance</th><th>Onset Date</th><th>Status</th><th>Type</th><th>Reaction</th></tr><tr><td></td><td>?</td><td>active</td><td>?</td><td></td></tr></table></div>"
            },
            "entry": [
              {
                "reference": "urn:uuid:7220b104-f750-44e6-9783-afacaa6048f4"
              }
            ],
            "code": {
              "coding": [
                {
                  "system": "http://loinc.org",
                  "code": "48765-2",
                  "display": "Allergies and adverse reactions Document"
                }
              ]
            },
            "title": "Allergies and Intolerances"
          },
          {
            "text": {
              "status": "generated",
              "div": "<div xmlns=\"http://www.w3.org/1999/xhtml\"><table class=\"hl7__ips\"><tr><th>Active Planned Care / Goals</th><th>Start Date</th><th>Reason</th></tr><tr><td>Respiratory therapy</td><td><span class=\"nb\">26-Feb-2025</span></td><td>-</td></tr></table></div>"
            },
            "title": "Care Plan",
            "code": {
              "coding": [
                {
                  "code": "18776-5",
                  "system": "http://loinc.org",
                  "display": "Plan of care note"
                }
              ]
            }
          },
          {
            "text": {
              "status": "generated",
              "div": "<div xmlns=\"http://www.w3.org/1999/xhtml\"><table class=\"hl7__ips\"><tr><th>Vital Signs</th><th>2025-02-19</th><th>2024-01-24</th></tr><tr><td>Body Height</td><td>174.6 cm</td><td>174.6 cm</td></tr><tr><td>Pain severity - 0-10 verbal numeric rating [Score] - Reported</td><td>4 {score}</td><td>1 {score}</td></tr><tr><td>Body Weight</td><td>74.2 kg</td><td>72.7 kg</td></tr><tr><td>Body mass index (BMI) [Ratio]</td><td>24.3 kg/m2</td><td>23.9 kg/m2</td></tr><tr><td>Diastolic Blood Pressure</td><td>76 mm[Hg]</td><td>77 mm[Hg]</td></tr><tr><td>Systolic Blood Pressure</td><td>133 mm[Hg]</td><td>134 mm[Hg]</td></tr><tr><td>Heart rate</td><td>72 /min</td><td>83 /min</td></tr><tr><td>Respiratory rate</td><td>13 /min</td><td>14 /min</td></tr><tr><td>Body mass index (BMI) [Percentile] Per age and sex</td><td>-</td><td>72.6 %</td></tr></table></div>"
            },
            "entry": [
              {
                "reference": "urn:uuid:b5411824-5437-4fee-accb-d70949867a21"
              }
            ],
            "code": {
              "coding": [
                {
                  "system": "http://loinc.org",
                  "code": "8716-3",
                  "display": "Vital signs note"
                }
              ]
            },
            "title": "Vital Signs"
          },
          {
            "text": {
              "status": "generated",
              "div": "<div xmlns=\"http://www.w3.org/1999/xhtml\"><table class=\"hl7__ips\"><table class=\"hl7__ips\"><thead><tr><th>Recent Lab Observations</th><th>06-JAN-2021</th><th>Reference&#xA0;Range</th><th>Unit</th></tr></thead><tbody><tr><td>Leukocytes [#/volume] in Blood by Automated count</td><td>3.7</td><td>3.6 - 10.5</td><td>10*3/uL</td></tr><tr><td>Erythrocytes [#/volume] in Blood by Automated count</td><td><strong>4.2 L</strong></td><td>4.5 - 5.5</td><td>10*6/uL</td></tr><tr><td>Hemoglobin [Mass/volume] in Blood</td><td>12.4</td><td>12 - 16</td><td>g/dL</td></tr><tr><td>Hematocrit [Volume Fraction] of Blood by Automated count</td><td>47.2</td><td>36 - 48</td><td>%</td></tr><tr><td>MCV [Entitic volume] by Automated count</td><td>86.2</td><td>78 - 98</td><td>fL</td></tr><tr><td>MCH [Entitic mass] by Automated count</td><td>28.4</td><td>27 - 33</td><td>pg</td></tr><tr><td>MCHC [Mass/volume] by Automated count</td><td>33.1</td><td>31.5 - 35</td><td>g/dL</td></tr><tr><td>Erythrocyte distribution width [Entitic volume] by Automated count</td><td>41.6</td><td>36 - 55</td><td>fL</td></tr><tr><td>Platelets [#/volume] in Blood by Automated count</td><td>309.2</td><td>150 - 450</td><td>10*3/uL</td></tr><tr><td>Platelet distribution width [Entitic volume] in Blood by Automated count</td><td><strong>482.0 H</strong></td><td>13.4 - 17.4</td><td>fL</td></tr><tr><td>Platelet mean volume [Entitic volume] in Blood by Automated count</td><td>11.4</td><td>9.7 - 12</td><td>fL</td></tr></tbody></table></table></div>"
            },
            "title": "Relevant diagnostic tests/laboratory data",
            "code": {
              "coding": [
                {
                  "code": "30954-2",
                  "system": "http://loinc.org",
                  "display": "Relevant diagnostic tests/laboratory data note"
                }
              ]
            }
          }
        ],
        "title": "European Patient Summary",
        "status": "final",
        "subject": {
          "reference": "urn:uuid:2f8cb3b4-8187-4a45-92dd-8a251790410e",
          "display": "Margaret Beyer"
        },
        "custodian": {
          "reference": "urn:uuid:b79e7308-e15e-4aa9-863d-b56469f540dc"
        },
        "date": "2021-01-06",
        "confidentiality": "N"
      }
    },
    {
      "fullUrl": "urn:uuid:2f8cb3b4-8187-4a45-92dd-8a251790410e",
      "resource": {
        "resourceType": "Patient",
        "id": "2f8cb3b4-8187-4a45-92dd-8a251790410e",
        "meta": {
          "security": [
            {
              "system": "http://terminology.hl7.org/CodeSystem/v3-ActReason",
              "code": "HTEST"
            },
            {
              "system": "http://terminology.hl7.org/CodeSystem/v3-ActReason",
              "code": "TRAIN"
            }
          ],
          "tag": [
            {
              "system": "https://synderai.net/fhir/CodeSystem/tags",
              "code": "synthetic",
              "display": "SYNDERAI Synthetic data"
            }
          ],
          "profile": [
            "http://hl7.eu/fhir/eps/StructureDefinition/patient-eu-eps"
          ]
        },
        "identifier": [
          {
            "type": {
              "coding": [
                {
                  "code": "PT",
                  "system": "http://terminology.hl7.org/CodeSystem/v2-0203"
                }
              ]
            },
            "system": "http://ec.europa.eu/identifier/eci",
            "value": "5929-274446-9"
          },
          {
            "type": {
              "coding": [
                {
                  "code": "MR",
                  "system": "http://terminology.hl7.org/CodeSystem/v2-0203"
                }
              ]
            },
            "system": "http://local.setting.eu/identifier",
            "value": "9f8e2369-03de-24bf-805b-de3ddceec157"
          }
        ],
        "name": [
          {
            "given": [
              "Margaret"
            ],
            "family": "Beyer",
            "text": "Margaret Beyer"
          }
        ],
        "address": [
          {
            "line": [
              "Striebitzgasse 282"
            ],
            "use": "home",
            "type": "physical",
            "postalCode": "37115",
            "city": "Duderstadt",
            "country": "Germany"
          }
        ],
        "telecom": [
          {
            "system": "phone",
            "value": "09882 71099"
          }
        ],
        "extension": [
          {
            "url": "http://hl7.org/fhir/StructureDefinition/patient-nationality",
            "valueCodeableConcept": {
              "coding": [
                {
                  "code": "DE",
                  "system": "http://hl7.org/fhir/ValueSet/country"
                }
              ]
            }
          }
        ],
        "text": {
          "status": "generated",
          "div": "<div xmlns=\"http://www.w3.org/1999/xhtml\"><table class=\"hl7__ips\"><tr><td>Margaret Beyer</td><td>female</td><td>21-Sep-2006</td></tr></table></div>"
        },
        "gender": "female",
        "birthDate": "2006-09-21"
      }
    },
    {
      "fullUrl": "urn:uuid:1146de30-105a-450e-b76d-37c327cf4382",
      "resource": {
        "resourceType": "PractitionerRole",
        "id": "1146de30-105a-450e-b76d-37c327cf4382",
        "meta": {
          "profile": [
            "http://hl7.eu/fhir/base/StructureDefinition/practitionerRole-eu"
          ]
        },
        "text": {
          "status": "generated",
          "div": "<div xmlns=\"http://www.w3.org/1999/xhtml\"><table class=\"hl7__ips\">Provider Role Id 1146de30-105a-450e-b76d-37c327cf4382</table></div>"
        },
        "practitioner": {
          "reference": "urn:uuid:fb5fe473-5630-44a9-8b4a-be2004d3676a"
        },
        "organization": {
          "reference": "urn:uuid:b79e7308-e15e-4aa9-863d-b56469f540dc"
        }
      }
    },
    {
      "fullUrl": "urn:uuid:b79e7308-e15e-4aa9-863d-b56469f540dc",
      "resource": {
        "resourceType": "Organization",
        "id": "b79e7308-e15e-4aa9-863d-b56469f540dc",
        "meta": {
          "profile": [
            "http://hl7.eu/fhir/base/StructureDefinition/organization-eu"
          ]
        },
        "identifier": [
          {
            "assigner": {
              "display": "HL7 Europe"
            },
            "system": "urn:oid:2.16.840.1.113883.2.51.999",
            "value": "75c18afd-d88a-4ffe-8f3d-89cc074336c5"
          }
        ],
        "address": [
          {
            "line": [
              "Göttinger Straße 34"
            ],
            "city": "Duderstadt",
            "postalCode": "37115",
            "country": "Germany"
          }
        ],
        "text": {
          "status": "generated",
          "div": "<div xmlns=\"http://www.w3.org/1999/xhtml\"><table class=\"hl7__ips\">St. Martini Krankenhaus</table></div>"
        },
        "name": "St. Martini Krankenhaus"
      }
    },
    {
      "fullUrl": "urn:uuid:fb5fe473-5630-44a9-8b4a-be2004d3676a",
      "resource": {
        "resourceType": "Practitioner",
        "id": "fb5fe473-5630-44a9-8b4a-be2004d3676a",
        "meta": {
          "profile": [
            "http://hl7.eu/fhir/base/StructureDefinition/practitioner-eu"
          ]
        },
        "name": [
          {
            "prefix": [
              "Dr."
            ],
            "given": [
              "Hel"
            ],
            "family": "Ping"
          }
        ],
        "text": {
          "status": "generated",
          "div": "<div xmlns=\"http://www.w3.org/1999/xhtml\"><table class=\"hl7__ips\">Dr. Hel Ping</table></div>"
        }
      }
    },
    {
      "fullUrl": "urn:uuid:140f17fa-543e-4d47-b6cf-ccb3d587dadc",
      "resource": {
        "resourceType": "Condition",
        "id": "140f17fa-543e-4d47-b6cf-ccb3d587dadc",
        "meta": {
          "profile": [
            "http://hl7.org/fhir/uv/ips/StructureDefinition/Condition-uv-ips"
          ]
        },
        "code": {
          "coding": [
            {
              "code": "160245001",
              "system": "http://snomed.info/sct",
              "display": "No current problems or disability (situation)"
            }
          ]
        },
        "text": {
          "status": "generated",
          "div": "<div xmlns=\"http://www.w3.org/1999/xhtml\"><table class=\"hl7__ips\"><tr><td>No known problems or disabilities</td></tr></table></div>"
        },
        "subject": {
          "reference": "Patient/2f8cb3b4-8187-4a45-92dd-8a251790410e",
          "display": "Margaret Beyer"
        },
        "_onsetDateTime": {
          "extension": [
            {
              "url": "http://hl7.org/fhir/StructureDefinition/data-absent-reason",
              "valueCode": "unknown\""
            }
          ]
        }
      }
    },
    {
      "fullUrl": "urn:uuid:7e3e466a-34a0-480d-8191-a97f33f8e9ea",
      "resource": {
        "resourceType": "MedicationStatement",
        "id": "7e3e466a-34a0-480d-8191-a97f33f8e9ea",
        "meta": {
          "profile": [
            "http://hl7.eu/fhir/eps/StructureDefinition/MedicationStatement-eu-eps"
          ]
        },
        "effectivePeriod": {
          "extension": [
            {
              "url": "http://hl7.org/fhir/StructureDefinition/data-absent-reason",
              "valueCode": "unknown"
            }
          ]
        },
        "status": "active",
        "medicationCodeableConcept": {
          "coding": [
            {
              "code": "787481004",
              "system": "http://snomed.info/sct",
              "display": "No known medications (situation)"
            }
          ]
        },
        "subject": {
          "reference": "urn:uuid:2f8cb3b4-8187-4a45-92dd-8a251790410e",
          "display": "Margaret Beyer"
        }
      }
    },
    {
      "fullUrl": "urn:uuid:46fa0eb9-620f-4bcc-a1b1-9822c7321eba",
      "resource": {
        "resourceType": "Immunization",
        "id": "46fa0eb9-620f-4bcc-a1b1-9822c7321eba",
        "meta": {
          "profile": [
            "http://hl7.org/fhir/uv/ips/StructureDefinition/Immunization-uv-ips"
          ]
        },
        "vaccineCode": {
          "coding": [
            {
              "code": "871822003",
              "system": "http://snomed.info/sct",
              "display": "Vaccine product containing Hepatitis B virus antigen"
            },
            {
              "code": "J07BC01",
              "system": "http://www.whocc.no/atc",
              "display": "Hepatitis B vaccines"
            }
          ],
          "text": "Hepatitis B virus antigen only vaccine product"
        },
        "site": {
          "coding": [
            {
              "code": "244979005",
              "system": "http://snomed.info/sct",
              "display": "Entire muscle of upper arm"
            }
          ],
          "text": "Entire muscle of upper arm"
        },
        "route": {
          "coding": [
            {
              "code": "78421000",
              "system": "http://snomed.info/sct",
              "display": "Intramuscular route"
            }
          ],
          "text": "Intramuscular route"
        },
        "text": {
          "status": "generated",
          "div": "<div xmlns=\"http://www.w3.org/1999/xhtml\"><table class=\"hl7__ips\"><tr><td>Hepatitis B virus antigen only vaccine product</td><td><span class=\"nb\">19-Feb-2025</span></td></tr></table></div>"
        },
        "status": "completed",
        "patient": {
          "reference": "urn:uuid:2f8cb3b4-8187-4a45-92dd-8a251790410e",
          "display": "Margaret Beyer"
        },
        "occurrenceDateTime": "2025-02-19",
        "lotNumber": "DL-dQig64s",
        "expirationDate": "2025-07-17"
      }
    },
    {
      "fullUrl": "urn:uuid:98b68ffd-66e0-4875-8ef0-4da1cb82ffaa",
      "resource": {
        "resourceType": "Immunization",
        "id": "98b68ffd-66e0-4875-8ef0-4da1cb82ffaa",
        "meta": {
          "profile": [
            "http://hl7.org/fhir/uv/ips/StructureDefinition/Immunization-uv-ips"
          ]
        },
        "vaccineCode": {
          "coding": [
            {
              "code": "1181000221105",
              "system": "http://snomed.info/sct",
              "display": "Vaccine product containing Influenza virus antigen"
            },
            {
              "code": "J07BB02",
              "system": "http://www.whocc.no/atc",
              "display": "Influenza, inactivated, split virus"
            }
          ],
          "text": "Influenza virus antigen only vaccine product"
        },
        "site": {
          "coding": [
            {
              "code": "244979005",
              "system": "http://snomed.info/sct",
              "display": "Entire muscle of upper arm"
            }
          ],
          "text": "Entire muscle of upper arm"
        },
        "route": {
          "coding": [
            {
              "code": "78421000",
              "system": "http://snomed.info/sct",
              "display": "Intramuscular route"
            }
          ],
          "text": "Intramuscular route"
        },
        "text": {
          "status": "generated",
          "div": "<div xmlns=\"http://www.w3.org/1999/xhtml\"><table class=\"hl7__ips\"><tr><td>Influenza virus antigen only vaccine product</td><td><span class=\"nb\">19-Feb-2025</span></td></tr></table></div>"
        },
        "status": "completed",
        "patient": {
          "reference": "urn:uuid:2f8cb3b4-8187-4a45-92dd-8a251790410e",
          "display": "Margaret Beyer"
        },
        "occurrenceDateTime": "2025-02-19",
        "lotNumber": "IS-9cuK",
        "expirationDate": "2025-05-19"
      }
    },
    {
      "fullUrl": "urn:uuid:367af904-516f-420f-82b0-b4c8d3770e21",
      "resource": {
        "resourceType": "Immunization",
        "id": "367af904-516f-420f-82b0-b4c8d3770e21",
        "meta": {
          "profile": [
            "http://hl7.org/fhir/uv/ips/StructureDefinition/Immunization-uv-ips"
          ]
        },
        "vaccineCode": {
          "coding": [
            {
              "code": "1119349007",
              "system": "http://snomed.info/sct",
              "display": "Vaccine product containing SARS-CoV-2 mRNA"
            },
            {
              "code": "J07BX03",
              "system": "http://www.whocc.no/atc",
              "display": "COVID-19 mRNA vaccines"
            }
          ],
          "text": "SARS-CoV-2 mRNA vaccine"
        },
        "site": {
          "coding": [
            {
              "code": "244979005",
              "system": "http://snomed.info/sct",
              "display": "Entire muscle of upper arm"
            }
          ],
          "text": "Entire muscle of upper arm"
        },
        "route": {
          "coding": [
            {
              "code": "78421000",
              "system": "http://snomed.info/sct",
              "display": "Intramuscular route"
            }
          ],
          "text": "Intramuscular route"
        },
        "text": {
          "status": "generated",
          "div": "<div xmlns=\"http://www.w3.org/1999/xhtml\"><table class=\"hl7__ips\"><tr><td>SARS-CoV-2 mRNA vaccine</td><td><span class=\"nb\">26-May-2021</span></td></tr></table></div>"
        },
        "status": "completed",
        "patient": {
          "reference": "urn:uuid:2f8cb3b4-8187-4a45-92dd-8a251790410e",
          "display": "Margaret Beyer"
        },
        "occurrenceDateTime": "2021-05-26",
        "lotNumber": "XY-4Mn4K",
        "expirationDate": "2021-08-12"
      }
    },
    {
      "fullUrl": "urn:uuid:53a23b42-ccfd-4f77-bea0-2a0f9aff0873",
      "resource": {
        "resourceType": "Immunization",
        "id": "53a23b42-ccfd-4f77-bea0-2a0f9aff0873",
        "meta": {
          "profile": [
            "http://hl7.org/fhir/uv/ips/StructureDefinition/Immunization-uv-ips"
          ]
        },
        "vaccineCode": {
          "coding": [
            {
              "code": "836401009",
              "system": "http://snomed.info/sct",
              "display": "Vaccine product containing Neisseria meningitidis antigen"
            },
            {
              "code": "J07AH08",
              "system": "http://www.whocc.no/atc",
              "display": "Meningococcal vaccines, conjugated"
            }
          ],
          "text": "Neisseria meningitidis antigen-containing vaccine product"
        },
        "site": {
          "coding": [
            {
              "code": "244979005",
              "system": "http://snomed.info/sct",
              "display": "Entire muscle of upper arm"
            }
          ],
          "text": "Entire muscle of upper arm"
        },
        "route": {
          "coding": [
            {
              "code": "78421000",
              "system": "http://snomed.info/sct",
              "display": "Intramuscular route"
            }
          ],
          "text": "Intramuscular route"
        },
        "text": {
          "status": "generated",
          "div": "<div xmlns=\"http://www.w3.org/1999/xhtml\"><table class=\"hl7__ips\"><tr><td>Neisseria meningitidis antigen-containing vaccine product</td><td><span class=\"nb\">06-Jan-2021</span></td></tr></table></div>"
        },
        "status": "completed",
        "patient": {
          "reference": "urn:uuid:2f8cb3b4-8187-4a45-92dd-8a251790410e",
          "display": "Margaret Beyer"
        },
        "occurrenceDateTime": "2021-01-06",
        "lotNumber": "AR-A5aRfz2CL",
        "expirationDate": "2021-05-03"
      }
    },
    {
      "fullUrl": "urn:uuid:9cb520ec-8463-4e79-8627-6d3e527fec14",
      "resource": {
        "resourceType": "Immunization",
        "id": "9cb520ec-8463-4e79-8627-6d3e527fec14",
        "meta": {
          "profile": [
            "http://hl7.org/fhir/uv/ips/StructureDefinition/Immunization-uv-ips"
          ]
        },
        "vaccineCode": {
          "coding": [
            {
              "code": "2001000221108",
              "system": "http://snomed.info/sct",
              "display": "Vaccine product containing HPV 6, 11, 16, and 18 antigens"
            },
            {
              "code": "J07BM02",
              "system": "http://www.whocc.no/atc",
              "display": "Human papillomavirus vaccines"
            }
          ],
          "text": "Human papillomavirus 6"
        },
        "site": {
          "coding": [
            {
              "code": "244979005",
              "system": "http://snomed.info/sct",
              "display": "Entire muscle of upper arm"
            }
          ],
          "text": "Entire muscle of upper arm"
        },
        "route": {
          "coding": [
            {
              "code": "78421000",
              "system": "http://snomed.info/sct",
              "display": "Intramuscular route"
            }
          ],
          "text": "Intramuscular route"
        },
        "text": {
          "status": "generated",
          "div": "<div xmlns=\"http://www.w3.org/1999/xhtml\"><table class=\"hl7__ips\"><tr><td>Human papillomavirus 6</td><td><span class=\"nb\">20-Dec-2017</span></td></tr></table></div>"
        },
        "status": "completed",
        "patient": {
          "reference": "urn:uuid:2f8cb3b4-8187-4a45-92dd-8a251790410e",
          "display": "Margaret Beyer"
        },
        "occurrenceDateTime": "2017-12-20",
        "lotNumber": "SH-xJfc8mXff",
        "expirationDate": "2018-07-03"
      }
    },
    {
      "fullUrl": "urn:uuid:39ef9771-7a36-4220-a7a6-f91743ee839c",
      "resource": {
        "resourceType": "Immunization",
        "id": "39ef9771-7a36-4220-a7a6-f91743ee839c",
        "meta": {
          "profile": [
            "http://hl7.org/fhir/uv/ips/StructureDefinition/Immunization-uv-ips"
          ]
        },
        "vaccineCode": {
          "coding": [
            {
              "code": "871875004",
              "system": "http://snomed.info/sct",
              "display": "Vaccine product containing Bordetella pertussis, Clostridium tetani, and Corynebacterium diphtheriae antigens"
            },
            {
              "code": "J07AM52",
              "system": "http://www.whocc.no/atc",
              "display": "Diphtheria-tetanus-pertussis vaccines, adult type"
            }
          ],
          "text": "Bordetella pertussis and Clostridium tetani and Corynebacterium diphtheriae antigens only vaccine product"
        },
        "site": {
          "coding": [
            {
              "code": "244979005",
              "system": "http://snomed.info/sct",
              "display": "Entire muscle of upper arm"
            }
          ],
          "text": "Entire muscle of upper arm"
        },
        "route": {
          "coding": [
            {
              "code": "78421000",
              "system": "http://snomed.info/sct",
              "display": "Intramuscular route"
            }
          ],
          "text": "Intramuscular route"
        },
        "text": {
          "status": "generated",
          "div": "<div xmlns=\"http://www.w3.org/1999/xhtml\"><table class=\"hl7__ips\"><tr><td>Bordetella pertussis and Clostridium tetani and Corynebacterium diphtheriae antigens only vaccine product</td><td><span class=\"nb\">09-Dec-2015</span></td></tr></table></div>"
        },
        "status": "completed",
        "patient": {
          "reference": "urn:uuid:2f8cb3b4-8187-4a45-92dd-8a251790410e",
          "display": "Margaret Beyer"
        },
        "occurrenceDateTime": "2015-12-09",
        "lotNumber": "RP-4QdPiQBl",
        "expirationDate": "2016-04-09"
      }
    },
    {
      "fullUrl": "urn:uuid:3326319c-4cc2-452c-b116-051459cd7211",
      "resource": {
        "resourceType": "Procedure",
        "id": "3326319c-4cc2-452c-b116-051459cd7211",
        "meta": {
          "profile": [
            "http://hl7.org/fhir/uv/ips/StructureDefinition/Procedure-uv-ips"
          ]
        },
        "code": {
          "coding": [
            {
              "code": "171207006",
              "system": "http://snomed.info/sct",
              "display": "Depression screening (procedure)"
            }
          ],
          "text": "Depression screening"
        },
        "text": {
          "status": "generated",
          "div": "<div xmlns=\"http://www.w3.org/1999/xhtml\"><table class=\"hl7__ips\"><tr><td>Depression screening</td><td><span class=\"nb\">19-Feb-2025</span></td><td>-</td></tr></table></div>"
        },
        "status": "completed",
        "performedDateTime": "2025-02-19",
        "subject": {
          "reference": "urn:uuid:2f8cb3b4-8187-4a45-92dd-8a251790410e",
          "display": "Margaret Beyer"
        }
      }
    },
    {
      "fullUrl": "urn:uuid:e69610a4-46f0-43dd-be78-61f6610f25ca",
      "resource": {
        "resourceType": "Procedure",
        "id": "e69610a4-46f0-43dd-be78-61f6610f25ca",
        "meta": {
          "profile": [
            "http://hl7.org/fhir/uv/ips/StructureDefinition/Procedure-uv-ips"
          ]
        },
        "code": {
          "coding": [
            {
              "code": "430193006",
              "system": "http://snomed.info/sct",
              "display": "Medication Reconciliation (procedure)"
            }
          ],
          "text": "Medication reconciliation"
        },
        "text": {
          "status": "generated",
          "div": "<div xmlns=\"http://www.w3.org/1999/xhtml\"><table class=\"hl7__ips\"><tr><td>Medication reconciliation</td><td><span class=\"nb\">19-Feb-2025</span></td><td>-</td></tr></table></div>"
        },
        "status": "completed",
        "performedDateTime": "2025-02-19",
        "subject": {
          "reference": "urn:uuid:2f8cb3b4-8187-4a45-92dd-8a251790410e",
          "display": "Margaret Beyer"
        }
      }
    },
    {
      "fullUrl": "urn:uuid:390a9c7e-6425-4dc6-a52b-c1846c953029",
      "resource": {
        "resourceType": "Procedure",
        "id": "390a9c7e-6425-4dc6-a52b-c1846c953029",
        "meta": {
          "profile": [
            "http://hl7.org/fhir/uv/ips/StructureDefinition/Procedure-uv-ips"
          ]
        },
        "code": {
          "coding": [
            {
              "code": "710824005",
              "system": "http://snomed.info/sct",
              "display": "Assessment of health and social care needs (procedure)"
            }
          ],
          "text": "Assessment of health and social care needs"
        },
        "text": {
          "status": "generated",
          "div": "<div xmlns=\"http://www.w3.org/1999/xhtml\"><table class=\"hl7__ips\"><tr><td>Assessment of health and social care needs</td><td><span class=\"nb\">19-Feb-2025</span></td><td>-</td></tr></table></div>"
        },
        "status": "completed",
        "performedDateTime": "2025-02-19",
        "subject": {
          "reference": "urn:uuid:2f8cb3b4-8187-4a45-92dd-8a251790410e",
          "display": "Margaret Beyer"
        }
      }
    },
    {
      "fullUrl": "urn:uuid:dee1a33c-db2e-4413-a2e8-9c1c87e88ee7",
      "resource": {
        "resourceType": "Procedure",
        "id": "dee1a33c-db2e-4413-a2e8-9c1c87e88ee7",
        "meta": {
          "profile": [
            "http://hl7.org/fhir/uv/ips/StructureDefinition/Procedure-uv-ips"
          ]
        },
        "code": {
          "coding": [
            {
              "code": "710841007",
              "system": "http://snomed.info/sct",
              "display": "Assessment of anxiety (procedure)"
            }
          ],
          "text": "Assessment of anxiety"
        },
        "text": {
          "status": "generated",
          "div": "<div xmlns=\"http://www.w3.org/1999/xhtml\"><table class=\"hl7__ips\"><tr><td>Assessment of anxiety</td><td><span class=\"nb\">19-Feb-2025</span></td><td>-</td></tr></table></div>"
        },
        "status": "completed",
        "performedDateTime": "2025-02-19",
        "subject": {
          "reference": "urn:uuid:2f8cb3b4-8187-4a45-92dd-8a251790410e",
          "display": "Margaret Beyer"
        }
      }
    },
    {
      "fullUrl": "urn:uuid:40398363-3584-4733-8be0-74ec1b74c76c",
      "resource": {
        "resourceType": "Procedure",
        "id": "40398363-3584-4733-8be0-74ec1b74c76c",
        "meta": {
          "profile": [
            "http://hl7.org/fhir/uv/ips/StructureDefinition/Procedure-uv-ips"
          ]
        },
        "code": {
          "coding": [
            {
              "code": "866148006",
              "system": "http://snomed.info/sct",
              "display": "Screening for domestic abuse (procedure)"
            }
          ],
          "text": "Screening for domestic abuse"
        },
        "text": {
          "status": "generated",
          "div": "<div xmlns=\"http://www.w3.org/1999/xhtml\"><table class=\"hl7__ips\"><tr><td>Screening for domestic abuse</td><td><span class=\"nb\">19-Feb-2025</span></td><td>-</td></tr></table></div>"
        },
        "status": "completed",
        "performedDateTime": "2025-02-19",
        "subject": {
          "reference": "urn:uuid:2f8cb3b4-8187-4a45-92dd-8a251790410e",
          "display": "Margaret Beyer"
        }
      }
    },
    {
      "fullUrl": "urn:uuid:d478e18d-d460-4679-ae93-b46144d89fee",
      "resource": {
        "resourceType": "Procedure",
        "id": "d478e18d-d460-4679-ae93-b46144d89fee",
        "meta": {
          "profile": [
            "http://hl7.org/fhir/uv/ips/StructureDefinition/Procedure-uv-ips"
          ]
        },
        "code": {
          "coding": [
            {
              "code": "454711000124102",
              "system": "http://snomed.info/sct",
              "display": "Depression screening using Patient Health Questionnaire Two-Item score (procedure)"
            }
          ]
        },
        "text": {
          "status": "generated",
          "div": "<div xmlns=\"http://www.w3.org/1999/xhtml\"><table class=\"hl7__ips\"><tr><td>Depression screening using Patient Health Questionnaire Two-Item score (procedure)</td><td><span class=\"nb\">19-Feb-2025</span></td><td>-</td></tr></table></div>"
        },
        "status": "completed",
        "performedDateTime": "2025-02-19",
        "subject": {
          "reference": "urn:uuid:2f8cb3b4-8187-4a45-92dd-8a251790410e",
          "display": "Margaret Beyer"
        }
      }
    },
    {
      "fullUrl": "urn:uuid:7220b104-f750-44e6-9783-afacaa6048f4",
      "resource": {
        "resourceType": "AllergyIntolerance",
        "id": "7220b104-f750-44e6-9783-afacaa6048f4",
        "meta": {
          "profile": [
            "http://hl7.eu/fhir/base/StructureDefinition/allergyIntolerance-eu-core"
          ]
        },
        "code": {
          "text": ""
        },
        "clinicalStatus": {
          "coding": [
            {
              "code": "active",
              "system": "http://terminology.hl7.org/CodeSystem/allergyintolerance-clinical"
            }
          ]
        },
        "text": {
          "status": "generated",
          "div": "<div xmlns=\"http://www.w3.org/1999/xhtml\"><table class=\"hl7__ips\"><tr><th>Allergy/Intolerance</th><th>Onset Date</th><th>Status</th><th>Type</th><th>Reaction</th></tr><tr><td></td><td>?</td><td>active</td><td>?</td><td></td></tr></table></div>"
        },
        "verificationStatus": {
          "coding": [
            {
              "code": "confirmed",
              "system": "http://terminology.hl7.org/CodeSystem/allergyintolerance-verification"
            }
          ]
        },
        "patient": {
          "reference": "urn:uuid:2f8cb3b4-8187-4a45-92dd-8a251790410e",
          "display": "Margaret Beyer"
        },
        "_onsetDateTime": {
          "extension": [
            {
              "url": "http://hl7.org/fhir/StructureDefinition/data-absent-reason",
              "valueCode": "unknown"
            }
          ]
        }
      }
    },
    {
      "fullUrl": "urn:uuid:dc7e191b-ad5f-4700-b6cc-c871d1d1dc0a",
      "resource": {
        "resourceType": "CarePlan",
        "id": "dc7e191b-ad5f-4700-b6cc-c871d1d1dc0a",
        "category": [
          {
            "coding": [
              {
                "code": "assess-plan",
                "system": "http://terminology.hl7.org/CodeSystem/care-plan-category",
                "display": "Assessment and Plan"
              }
            ]
          }
        ],
        "activity": [
          {
            "detail": {
              "code": {
                "coding": [
                  {
                    "code": "53950000",
                    "system": "http://snomed.info/sct",
                    "display": "Respiratory therapy (procedure)"
                  }
                ]
              },
              "status": "unknown",
              "description": "Respiratory therapy",
              "kind": "Appointment"
            }
          }
        ],
        "period": {
          "start": "2025-02-26"
        },
        "text": {
          "status": "generated",
          "div": "<div xmlns=\"http://www.w3.org/1999/xhtml\"><table class=\"hl7__ips first25\"><tr><th>Active Planned Care / Goals</th><th>Start Date</th><th>Reason</th></tr><tr><td>Respiratory therapy</td><td><span class=\"nb\">26-Feb-2025</span></td><td>-</td></tr></table></div>"
        },
        "status": "active",
        "intent": "plan",
        "subject": {
          "reference": "urn:uuid:2f8cb3b4-8187-4a45-92dd-8a251790410e",
          "display": "Margaret Beyer"
        }
      }
    },
    {
      "fullUrl": "urn:uuid:b5411824-5437-4fee-accb-d70949867a21",
      "resource": {
        "resourceType": "Observation",
        "id": "b5411824-5437-4fee-accb-d70949867a21",
        "meta": {
          "profile": [
            "http://hl7.org/fhir/StructureDefinition/vitalsigns"
          ]
        },
        "category": [
          {
            "coding": [
              {
                "system": "http://terminology.hl7.org/CodeSystem/observation-category",
                "code": "vital-signs",
                "display": "Vital Signs"
              }
            ]
          }
        ],
        "valueQuantity": {
          "value": 174.6,
          "code": "cm",
          "unit": "cm"
        },
        "text": {
          "status": "generated",
          "div": "<div xmlns=\"http://www.w3.org/1999/xhtml\"><table class=\"hl7__ips\"><tr><th>Vital Sign</th><th>Date</th><th>Measurement</th></tr><tr><td>Body Height</td><td>19-Feb-2025</td><td>174.6 cm</td></tr></table></div>"
        },
        "status": "final",
        "code": {
          "coding": [
            {
              "code": "8302-2",
              "system": "http://loinc.org",
              "display": "Body Height"
            }
          ]
        },
        "subject": {
          "reference": "urn:uuid:2f8cb3b4-8187-4a45-92dd-8a251790410e",
          "display": "Margaret Beyer"
        },
        "effectiveDateTime": "2025-02-19"
      }
    },
    {
      "fullUrl": "urn:uuid:91230c99-68c6-4788-a18b-e43c18c25668",
      "resource": {
        "resourceType": "Observation",
        "id": "91230c99-68c6-4788-a18b-e43c18c25668",
        "meta": {
          "profile": [
            "http://hl7.org/fhir/StructureDefinition/vitalsigns"
          ]
        },
        "category": [
          {
            "coding": [
              {
                "system": "http://terminology.hl7.org/CodeSystem/observation-category",
                "code": "vital-signs",
                "display": "Vital Signs"
              }
            ]
          }
        ],
        "valueQuantity": {
          "value": 4,
          "code": "{score}",
          "unit": "{score}"
        },
        "text": {
          "status": "generated",
          "div": "<div xmlns=\"http://www.w3.org/1999/xhtml\"><table class=\"hl7__ips\"><tr><th>Vital Sign</th><th>Date</th><th>Measurement</th></tr><tr><td>Pain severity - 0-10 verbal numeric rating [Score] - Reported</td><td>19-Feb-2025</td><td>4 {score}</td></tr></table></div>"
        },
        "status": "final",
        "code": {
          "coding": [
            {
              "code": "72514-3",
              "system": "http://loinc.org",
              "display": "Pain severity - 0-10 verbal numeric rating [Score] - Reported"
            }
          ]
        },
        "subject": {
          "reference": "urn:uuid:2f8cb3b4-8187-4a45-92dd-8a251790410e",
          "display": "Margaret Beyer"
        },
        "effectiveDateTime": "2025-02-19"
      }
    },
    {
      "fullUrl": "urn:uuid:df2030bc-fc83-4979-9138-dedc8c8c9742",
      "resource": {
        "resourceType": "Observation",
        "id": "df2030bc-fc83-4979-9138-dedc8c8c9742",
        "meta": {
          "profile": [
            "http://hl7.org/fhir/StructureDefinition/vitalsigns"
          ]
        },
        "category": [
          {
            "coding": [
              {
                "system": "http://terminology.hl7.org/CodeSystem/observation-category",
                "code": "vital-signs",
                "display": "Vital Signs"
              }
            ]
          }
        ],
        "valueQuantity": {
          "value": 74.2,
          "code": "kg",
          "unit": "kg"
        },
        "text": {
          "status": "generated",
          "div": "<div xmlns=\"http://www.w3.org/1999/xhtml\"><table class=\"hl7__ips\"><tr><th>Vital Sign</th><th>Date</th><th>Measurement</th></tr><tr><td>Body Weight</td><td>19-Feb-2025</td><td>74.2 kg</td></tr></table></div>"
        },
        "status": "final",
        "code": {
          "coding": [
            {
              "code": "29463-7",
              "system": "http://loinc.org",
              "display": "Body Weight"
            }
          ]
        },
        "subject": {
          "reference": "urn:uuid:2f8cb3b4-8187-4a45-92dd-8a251790410e",
          "display": "Margaret Beyer"
        },
        "effectiveDateTime": "2025-02-19"
      }
    },
    {
      "fullUrl": "urn:uuid:9a321090-3cba-485b-a7e0-3cafbf81aeb1",
      "resource": {
        "resourceType": "Observation",
        "id": "9a321090-3cba-485b-a7e0-3cafbf81aeb1",
        "meta": {
          "profile": [
            "http://hl7.org/fhir/StructureDefinition/vitalsigns"
          ]
        },
        "category": [
          {
            "coding": [
              {
                "system": "http://terminology.hl7.org/CodeSystem/observation-category",
                "code": "vital-signs",
                "display": "Vital Signs"
              }
            ]
          }
        ],
        "valueQuantity": {
          "value": 24.3,
          "code": "kg/m2",
          "unit": "kg/m2"
        },
        "text": {
          "status": "generated",
          "div": "<div xmlns=\"http://www.w3.org/1999/xhtml\"><table class=\"hl7__ips\"><tr><th>Vital Sign</th><th>Date</th><th>Measurement</th></tr><tr><td>Body mass index (BMI) [Ratio]</td><td>19-Feb-2025</td><td>24.3 kg/m2</td></tr></table></div>"
        },
        "status": "final",
        "code": {
          "coding": [
            {
              "code": "39156-5",
              "system": "http://loinc.org",
              "display": "Body mass index (BMI) [Ratio]"
            }
          ]
        },
        "subject": {
          "reference": "urn:uuid:2f8cb3b4-8187-4a45-92dd-8a251790410e",
          "display": "Margaret Beyer"
        },
        "effectiveDateTime": "2025-02-19"
      }
    },
    {
      "fullUrl": "urn:uuid:004d38a7-2f59-4a90-a12f-8b48f1da7b61",
      "resource": {
        "resourceType": "Observation",
        "id": "004d38a7-2f59-4a90-a12f-8b48f1da7b61",
        "meta": {
          "profile": [
            "http://hl7.org/fhir/StructureDefinition/vitalsigns"
          ]
        },
        "category": [
          {
            "coding": [
              {
                "system": "http://terminology.hl7.org/CodeSystem/observation-category",
                "code": "vital-signs",
                "display": "Vital Signs"
              }
            ]
          }
        ],
        "valueQuantity": {
          "value": 76,
          "code": "mm[Hg]",
          "unit": "mm[Hg]"
        },
        "text": {
          "status": "generated",
          "div": "<div xmlns=\"http://www.w3.org/1999/xhtml\"><table class=\"hl7__ips\"><tr><th>Vital Sign</th><th>Date</th><th>Measurement</th></tr><tr><td>Diastolic Blood Pressure</td><td>19-Feb-2025</td><td>76 mm[Hg]</td></tr></table></div>"
        },
        "status": "final",
        "code": {
          "coding": [
            {
              "code": "8462-4",
              "system": "http://loinc.org",
              "display": "Diastolic Blood Pressure"
            }
          ]
        },
        "subject": {
          "reference": "urn:uuid:2f8cb3b4-8187-4a45-92dd-8a251790410e",
          "display": "Margaret Beyer"
        },
        "effectiveDateTime": "2025-02-19"
      }
    },
    {
      "fullUrl": "urn:uuid:a48b9892-906a-436b-acae-5a7b1a7358ef",
      "resource": {
        "resourceType": "Observation",
        "id": "a48b9892-906a-436b-acae-5a7b1a7358ef",
        "meta": {
          "profile": [
            "http://hl7.org/fhir/StructureDefinition/vitalsigns"
          ]
        },
        "category": [
          {
            "coding": [
              {
                "system": "http://terminology.hl7.org/CodeSystem/observation-category",
                "code": "vital-signs",
                "display": "Vital Signs"
              }
            ]
          }
        ],
        "valueQuantity": {
          "value": 133,
          "code": "mm[Hg]",
          "unit": "mm[Hg]"
        },
        "text": {
          "status": "generated",
          "div": "<div xmlns=\"http://www.w3.org/1999/xhtml\"><table class=\"hl7__ips\"><tr><th>Vital Sign</th><th>Date</th><th>Measurement</th></tr><tr><td>Systolic Blood Pressure</td><td>19-Feb-2025</td><td>133 mm[Hg]</td></tr></table></div>"
        },
        "status": "final",
        "code": {
          "coding": [
            {
              "code": "8480-6",
              "system": "http://loinc.org",
              "display": "Systolic Blood Pressure"
            }
          ]
        },
        "subject": {
          "reference": "urn:uuid:2f8cb3b4-8187-4a45-92dd-8a251790410e",
          "display": "Margaret Beyer"
        },
        "effectiveDateTime": "2025-02-19"
      }
    },
    {
      "fullUrl": "urn:uuid:396f8c61-a498-4b6c-b7c1-7adf9377e1de",
      "resource": {
        "resourceType": "Observation",
        "id": "396f8c61-a498-4b6c-b7c1-7adf9377e1de",
        "meta": {
          "profile": [
            "http://hl7.org/fhir/StructureDefinition/vitalsigns"
          ]
        },
        "category": [
          {
            "coding": [
              {
                "system": "http://terminology.hl7.org/CodeSystem/observation-category",
                "code": "vital-signs",
                "display": "Vital Signs"
              }
            ]
          }
        ],
        "valueQuantity": {
          "value": 72,
          "code": "/min",
          "unit": "/min"
        },
        "text": {
          "status": "generated",
          "div": "<div xmlns=\"http://www.w3.org/1999/xhtml\"><table class=\"hl7__ips\"><tr><th>Vital Sign</th><th>Date</th><th>Measurement</th></tr><tr><td>Heart rate</td><td>19-Feb-2025</td><td>72 /min</td></tr></table></div>"
        },
        "status": "final",
        "code": {
          "coding": [
            {
              "code": "8867-4",
              "system": "http://loinc.org",
              "display": "Heart rate"
            }
          ]
        },
        "subject": {
          "reference": "urn:uuid:2f8cb3b4-8187-4a45-92dd-8a251790410e",
          "display": "Margaret Beyer"
        },
        "effectiveDateTime": "2025-02-19"
      }
    },
    {
      "fullUrl": "urn:uuid:265a194c-d823-4f0c-b051-f5ab8f78067f",
      "resource": {
        "resourceType": "Observation",
        "id": "265a194c-d823-4f0c-b051-f5ab8f78067f",
        "meta": {
          "profile": [
            "http://hl7.org/fhir/StructureDefinition/vitalsigns"
          ]
        },
        "category": [
          {
            "coding": [
              {
                "system": "http://terminology.hl7.org/CodeSystem/observation-category",
                "code": "vital-signs",
                "display": "Vital Signs"
              }
            ]
          }
        ],
        "valueQuantity": {
          "value": 13,
          "code": "/min",
          "unit": "/min"
        },
        "text": {
          "status": "generated",
          "div": "<div xmlns=\"http://www.w3.org/1999/xhtml\"><table class=\"hl7__ips\"><tr><th>Vital Sign</th><th>Date</th><th>Measurement</th></tr><tr><td>Respiratory rate</td><td>19-Feb-2025</td><td>13 /min</td></tr></table></div>"
        },
        "status": "final",
        "code": {
          "coding": [
            {
              "code": "9279-1",
              "system": "http://loinc.org",
              "display": "Respiratory rate"
            }
          ]
        },
        "subject": {
          "reference": "urn:uuid:2f8cb3b4-8187-4a45-92dd-8a251790410e",
          "display": "Margaret Beyer"
        },
        "effectiveDateTime": "2025-02-19"
      }
    },
    {
      "fullUrl": "urn:uuid:f7ddaa75-b706-4222-82b6-9eeb94af5545",
      "resource": {
        "resourceType": "Observation",
        "id": "f7ddaa75-b706-4222-82b6-9eeb94af5545",
        "meta": {
          "profile": [
            "http://hl7.org/fhir/StructureDefinition/vitalsigns"
          ]
        },
        "category": [
          {
            "coding": [
              {
                "system": "http://terminology.hl7.org/CodeSystem/observation-category",
                "code": "vital-signs",
                "display": "Vital Signs"
              }
            ]
          }
        ],
        "valueQuantity": {
          "value": 174.6,
          "code": "cm",
          "unit": "cm"
        },
        "text": {
          "status": "generated",
          "div": "<div xmlns=\"http://www.w3.org/1999/xhtml\"><table class=\"hl7__ips\"><tr><th>Vital Sign</th><th>Date</th><th>Measurement</th></tr><tr><td>Body Height</td><td>24-Jan-2024</td><td>174.6 cm</td></tr></table></div>"
        },
        "status": "final",
        "code": {
          "coding": [
            {
              "code": "8302-2",
              "system": "http://loinc.org",
              "display": "Body Height"
            }
          ]
        },
        "subject": {
          "reference": "urn:uuid:2f8cb3b4-8187-4a45-92dd-8a251790410e",
          "display": "Margaret Beyer"
        },
        "effectiveDateTime": "2024-01-24"
      }
    },
    {
      "fullUrl": "urn:uuid:846449a3-671a-4134-9da5-9212bfba2462",
      "resource": {
        "resourceType": "Observation",
        "id": "846449a3-671a-4134-9da5-9212bfba2462",
        "meta": {
          "profile": [
            "http://hl7.org/fhir/StructureDefinition/vitalsigns"
          ]
        },
        "category": [
          {
            "coding": [
              {
                "system": "http://terminology.hl7.org/CodeSystem/observation-category",
                "code": "vital-signs",
                "display": "Vital Signs"
              }
            ]
          }
        ],
        "valueQuantity": {
          "value": 1,
          "code": "{score}",
          "unit": "{score}"
        },
        "text": {
          "status": "generated",
          "div": "<div xmlns=\"http://www.w3.org/1999/xhtml\"><table class=\"hl7__ips\"><tr><th>Vital Sign</th><th>Date</th><th>Measurement</th></tr><tr><td>Pain severity - 0-10 verbal numeric rating [Score] - Reported</td><td>24-Jan-2024</td><td>1 {score}</td></tr></table></div>"
        },
        "status": "final",
        "code": {
          "coding": [
            {
              "code": "72514-3",
              "system": "http://loinc.org",
              "display": "Pain severity - 0-10 verbal numeric rating [Score] - Reported"
            }
          ]
        },
        "subject": {
          "reference": "urn:uuid:2f8cb3b4-8187-4a45-92dd-8a251790410e",
          "display": "Margaret Beyer"
        },
        "effectiveDateTime": "2024-01-24"
      }
    },
    {
      "fullUrl": "urn:uuid:e9f57b21-3760-4c6a-82b0-407f3e7dca2c",
      "resource": {
        "resourceType": "Observation",
        "id": "e9f57b21-3760-4c6a-82b0-407f3e7dca2c",
        "meta": {
          "profile": [
            "http://hl7.org/fhir/StructureDefinition/vitalsigns"
          ]
        },
        "category": [
          {
            "coding": [
              {
                "system": "http://terminology.hl7.org/CodeSystem/observation-category",
                "code": "vital-signs",
                "display": "Vital Signs"
              }
            ]
          }
        ],
        "valueQuantity": {
          "value": 72.7,
          "code": "kg",
          "unit": "kg"
        },
        "text": {
          "status": "generated",
          "div": "<div xmlns=\"http://www.w3.org/1999/xhtml\"><table class=\"hl7__ips\"><tr><th>Vital Sign</th><th>Date</th><th>Measurement</th></tr><tr><td>Body Weight</td><td>24-Jan-2024</td><td>72.7 kg</td></tr></table></div>"
        },
        "status": "final",
        "code": {
          "coding": [
            {
              "code": "29463-7",
              "system": "http://loinc.org",
              "display": "Body Weight"
            }
          ]
        },
        "subject": {
          "reference": "urn:uuid:2f8cb3b4-8187-4a45-92dd-8a251790410e",
          "display": "Margaret Beyer"
        },
        "effectiveDateTime": "2024-01-24"
      }
    },
    {
      "fullUrl": "urn:uuid:61a987b4-b09f-4918-b5eb-001f44cebda4",
      "resource": {
        "resourceType": "Observation",
        "id": "61a987b4-b09f-4918-b5eb-001f44cebda4",
        "meta": {
          "profile": [
            "http://hl7.org/fhir/StructureDefinition/vitalsigns"
          ]
        },
        "category": [
          {
            "coding": [
              {
                "system": "http://terminology.hl7.org/CodeSystem/observation-category",
                "code": "vital-signs",
                "display": "Vital Signs"
              }
            ]
          }
        ],
        "valueQuantity": {
          "value": 23.9,
          "code": "kg/m2",
          "unit": "kg/m2"
        },
        "text": {
          "status": "generated",
          "div": "<div xmlns=\"http://www.w3.org/1999/xhtml\"><table class=\"hl7__ips\"><tr><th>Vital Sign</th><th>Date</th><th>Measurement</th></tr><tr><td>Body mass index (BMI) [Ratio]</td><td>24-Jan-2024</td><td>23.9 kg/m2</td></tr></table></div>"
        },
        "status": "final",
        "code": {
          "coding": [
            {
              "code": "39156-5",
              "system": "http://loinc.org",
              "display": "Body mass index (BMI) [Ratio]"
            }
          ]
        },
        "subject": {
          "reference": "urn:uuid:2f8cb3b4-8187-4a45-92dd-8a251790410e",
          "display": "Margaret Beyer"
        },
        "effectiveDateTime": "2024-01-24"
      }
    },
    {
      "fullUrl": "urn:uuid:9c06f106-1392-44c8-afda-284f5ebf3424",
      "resource": {
        "resourceType": "Observation",
        "id": "9c06f106-1392-44c8-afda-284f5ebf3424",
        "meta": {
          "profile": [
            "http://hl7.org/fhir/StructureDefinition/vitalsigns"
          ]
        },
        "category": [
          {
            "coding": [
              {
                "system": "http://terminology.hl7.org/CodeSystem/observation-category",
                "code": "vital-signs",
                "display": "Vital Signs"
              }
            ]
          }
        ],
        "valueQuantity": {
          "value": 72.6,
          "code": "%",
          "unit": "%"
        },
        "text": {
          "status": "generated",
          "div": "<div xmlns=\"http://www.w3.org/1999/xhtml\"><table class=\"hl7__ips\"><tr><th>Vital Sign</th><th>Date</th><th>Measurement</th></tr><tr><td>Body mass index (BMI) [Percentile] Per age and sex</td><td>24-Jan-2024</td><td>72.6 %</td></tr></table></div>"
        },
        "status": "final",
        "code": {
          "coding": [
            {
              "code": "59576-9",
              "system": "http://loinc.org",
              "display": "Body mass index (BMI) [Percentile] Per age and sex"
            }
          ]
        },
        "subject": {
          "reference": "urn:uuid:2f8cb3b4-8187-4a45-92dd-8a251790410e",
          "display": "Margaret Beyer"
        },
        "effectiveDateTime": "2024-01-24"
      }
    },
    {
      "fullUrl": "urn:uuid:f636ec14-246c-4acd-b06e-afe284563580",
      "resource": {
        "resourceType": "Observation",
        "id": "f636ec14-246c-4acd-b06e-afe284563580",
        "meta": {
          "profile": [
            "http://hl7.org/fhir/StructureDefinition/vitalsigns"
          ]
        },
        "category": [
          {
            "coding": [
              {
                "system": "http://terminology.hl7.org/CodeSystem/observation-category",
                "code": "vital-signs",
                "display": "Vital Signs"
              }
            ]
          }
        ],
        "valueQuantity": {
          "value": 77,
          "code": "mm[Hg]",
          "unit": "mm[Hg]"
        },
        "text": {
          "status": "generated",
          "div": "<div xmlns=\"http://www.w3.org/1999/xhtml\"><table class=\"hl7__ips\"><tr><th>Vital Sign</th><th>Date</th><th>Measurement</th></tr><tr><td>Diastolic Blood Pressure</td><td>24-Jan-2024</td><td>77 mm[Hg]</td></tr></table></div>"
        },
        "status": "final",
        "code": {
          "coding": [
            {
              "code": "8462-4",
              "system": "http://loinc.org",
              "display": "Diastolic Blood Pressure"
            }
          ]
        },
        "subject": {
          "reference": "urn:uuid:2f8cb3b4-8187-4a45-92dd-8a251790410e",
          "display": "Margaret Beyer"
        },
        "effectiveDateTime": "2024-01-24"
      }
    },
    {
      "fullUrl": "urn:uuid:3b9dbb0c-f2de-49f7-8409-d75fea273291",
      "resource": {
        "resourceType": "Observation",
        "id": "3b9dbb0c-f2de-49f7-8409-d75fea273291",
        "meta": {
          "profile": [
            "http://hl7.org/fhir/StructureDefinition/vitalsigns"
          ]
        },
        "category": [
          {
            "coding": [
              {
                "system": "http://terminology.hl7.org/CodeSystem/observation-category",
                "code": "vital-signs",
                "display": "Vital Signs"
              }
            ]
          }
        ],
        "valueQuantity": {
          "value": 134,
          "code": "mm[Hg]",
          "unit": "mm[Hg]"
        },
        "text": {
          "status": "generated",
          "div": "<div xmlns=\"http://www.w3.org/1999/xhtml\"><table class=\"hl7__ips\"><tr><th>Vital Sign</th><th>Date</th><th>Measurement</th></tr><tr><td>Systolic Blood Pressure</td><td>24-Jan-2024</td><td>134 mm[Hg]</td></tr></table></div>"
        },
        "status": "final",
        "code": {
          "coding": [
            {
              "code": "8480-6",
              "system": "http://loinc.org",
              "display": "Systolic Blood Pressure"
            }
          ]
        },
        "subject": {
          "reference": "urn:uuid:2f8cb3b4-8187-4a45-92dd-8a251790410e",
          "display": "Margaret Beyer"
        },
        "effectiveDateTime": "2024-01-24"
      }
    },
    {
      "fullUrl": "urn:uuid:0c1cac2a-b281-4e4a-b72d-9f5f6d25374c",
      "resource": {
        "resourceType": "Observation",
        "id": "0c1cac2a-b281-4e4a-b72d-9f5f6d25374c",
        "meta": {
          "profile": [
            "http://hl7.org/fhir/StructureDefinition/vitalsigns"
          ]
        },
        "category": [
          {
            "coding": [
              {
                "system": "http://terminology.hl7.org/CodeSystem/observation-category",
                "code": "vital-signs",
                "display": "Vital Signs"
              }
            ]
          }
        ],
        "valueQuantity": {
          "value": 83,
          "code": "/min",
          "unit": "/min"
        },
        "text": {
          "status": "generated",
          "div": "<div xmlns=\"http://www.w3.org/1999/xhtml\"><table class=\"hl7__ips\"><tr><th>Vital Sign</th><th>Date</th><th>Measurement</th></tr><tr><td>Heart rate</td><td>24-Jan-2024</td><td>83 /min</td></tr></table></div>"
        },
        "status": "final",
        "code": {
          "coding": [
            {
              "code": "8867-4",
              "system": "http://loinc.org",
              "display": "Heart rate"
            }
          ]
        },
        "subject": {
          "reference": "urn:uuid:2f8cb3b4-8187-4a45-92dd-8a251790410e",
          "display": "Margaret Beyer"
        },
        "effectiveDateTime": "2024-01-24"
      }
    },
    {
      "fullUrl": "urn:uuid:a613341b-7bca-46ce-b892-62f62322cb34",
      "resource": {
        "resourceType": "Observation",
        "id": "a613341b-7bca-46ce-b892-62f62322cb34",
        "meta": {
          "profile": [
            "http://hl7.org/fhir/StructureDefinition/vitalsigns"
          ]
        },
        "category": [
          {
            "coding": [
              {
                "system": "http://terminology.hl7.org/CodeSystem/observation-category",
                "code": "vital-signs",
                "display": "Vital Signs"
              }
            ]
          }
        ],
        "valueQuantity": {
          "value": 14,
          "code": "/min",
          "unit": "/min"
        },
        "text": {
          "status": "generated",
          "div": "<div xmlns=\"http://www.w3.org/1999/xhtml\"><table class=\"hl7__ips\"><tr><th>Vital Sign</th><th>Date</th><th>Measurement</th></tr><tr><td>Respiratory rate</td><td>24-Jan-2024</td><td>14 /min</td></tr></table></div>"
        },
        "status": "final",
        "code": {
          "coding": [
            {
              "code": "9279-1",
              "system": "http://loinc.org",
              "display": "Respiratory rate"
            }
          ]
        },
        "subject": {
          "reference": "urn:uuid:2f8cb3b4-8187-4a45-92dd-8a251790410e",
          "display": "Margaret Beyer"
        },
        "effectiveDateTime": "2024-01-24"
      }
    },
    {
      "fullUrl": "urn:uuid:b24be947-48d9-4ed9-bbdb-7d5603c812b0",
      "resource": {
        "resourceType": "Observation",
        "id": "b24be947-48d9-4ed9-bbdb-7d5603c812b0",
        "meta": {
          "profile": [
            "http://hl7.eu/fhir/laboratory/StructureDefinition/Observation-resultslab-eu-lab"
          ]
        },
        "performer": [
          {
            "display": "The Central European Lab"
          }
        ],
        "category": [
          {
            "coding": [
              {
                "system": "http://terminology.hl7.org/CodeSystem/observation-category",
                "code": "laboratory"
              }
            ]
          }
        ],
        "code": {
          "coding": [
            {
              "code": "6690-2",
              "system": "http://loinc.org",
              "display": "Leukocytes [#/volume] in Blood by Automated count"
            }
          ],
          "text": "Leukocytes [#/volume] in Blood by Automated count"
        },
        "valueQuantity": {
          "system": "http://unitsofmeasure.org",
          "value": 3.7,
          "unit": "10*3/uL",
          "code": "10*3/uL"
        },
        "referenceRange": [
          {
            "low": {
              "value": 3.6,
              "code": "10*3/uL",
              "system": "http://unitsofmeasure.org"
            }
          },
          {
            "high": {
              "value": 10.5,
              "code": "10*3/uL",
              "system": "http://unitsofmeasure.org"
            }
          }
        ],
        "text": {
          "status": "generated",
          "div": "<div xmlns=\"http://www.w3.org/1999/xhtml\"><table class=\"hl7__eu__lab__report\"><tr><th>Test</th><th>06-Jan-2021</th><th>Reference&#xA0;Range</th><th>Unit</th></tr><tr><td>Leukocytes [#/volume] in Blood by Automated count</td><td>3.7</td><td>3.6 - 10.5</td><td></td><td>10*3/uL</td></tr></table></div>"
        },
        "status": "final",
        "subject": {
          "reference": "urn:uuid:2f8cb3b4-8187-4a45-92dd-8a251790410e",
          "display": "Margaret Beyer"
        },
        "effectiveDateTime": "2021-01-06T03:22:27Z"
      }
    },
    {
      "fullUrl": "urn:uuid:6ba603e5-9245-4656-8376-fea9d1b50632",
      "resource": {
        "resourceType": "Observation",
        "id": "6ba603e5-9245-4656-8376-fea9d1b50632",
        "meta": {
          "profile": [
            "http://hl7.eu/fhir/laboratory/StructureDefinition/Observation-resultslab-eu-lab"
          ]
        },
        "performer": [
          {
            "display": "The Central European Lab"
          }
        ],
        "category": [
          {
            "coding": [
              {
                "system": "http://terminology.hl7.org/CodeSystem/observation-category",
                "code": "laboratory"
              }
            ]
          }
        ],
        "code": {
          "coding": [
            {
              "code": "789-8",
              "system": "http://loinc.org",
              "display": "Erythrocytes [#/volume] in Blood by Automated count"
            }
          ],
          "text": "Erythrocytes [#/volume] in Blood by Automated count"
        },
        "valueQuantity": {
          "system": "http://unitsofmeasure.org",
          "value": 4.2,
          "unit": "10*6/uL",
          "code": "10*6/uL"
        },
        "referenceRange": [
          {
            "low": {
              "value": 4.5,
              "code": "10*6/uL",
              "system": "http://unitsofmeasure.org"
            }
          },
          {
            "high": {
              "value": 5.5,
              "code": "10*6/uL",
              "system": "http://unitsofmeasure.org"
            }
          }
        ],
        "interpretation": [
          {
            "coding": [
              {
                "code": "L",
                "system": "http://terminology.hl7.org/CodeSystem/v3-ObservationInterpretation",
                "display": "Low"
              }
            ]
          }
        ],
        "text": {
          "status": "generated",
          "div": "<div xmlns=\"http://www.w3.org/1999/xhtml\"><table class=\"hl7__eu__lab__report\"><tr><th>Test</th><th>06-Jan-2021</th><th>Reference&#xA0;Range</th><th>Unit</th></tr><tr><td>Erythrocytes [#/volume] in Blood by Automated count</td><td>4.2</td><td>4.5 - 5.5</td><td>L</td><td>10*6/uL</td></tr></table></div>"
        },
        "status": "final",
        "subject": {
          "reference": "urn:uuid:2f8cb3b4-8187-4a45-92dd-8a251790410e",
          "display": "Margaret Beyer"
        },
        "effectiveDateTime": "2021-01-06T03:22:27Z"
      }
    },
    {
      "fullUrl": "urn:uuid:025a7a4e-1b87-421c-b345-900a35e12623",
      "resource": {
        "resourceType": "Observation",
        "id": "025a7a4e-1b87-421c-b345-900a35e12623",
        "meta": {
          "profile": [
            "http://hl7.eu/fhir/laboratory/StructureDefinition/Observation-resultslab-eu-lab"
          ]
        },
        "performer": [
          {
            "display": "The Central European Lab"
          }
        ],
        "category": [
          {
            "coding": [
              {
                "system": "http://terminology.hl7.org/CodeSystem/observation-category",
                "code": "laboratory"
              }
            ]
          }
        ],
        "code": {
          "coding": [
            {
              "code": "718-7",
              "system": "http://loinc.org",
              "display": "Hemoglobin [Mass/volume] in Blood"
            }
          ],
          "text": "Hemoglobin [Mass/volume] in Blood"
        },
        "valueQuantity": {
          "system": "http://unitsofmeasure.org",
          "value": 12.4,
          "unit": "g/dL",
          "code": "g/dL"
        },
        "referenceRange": [
          {
            "low": {
              "value": 12,
              "code": "g/dL",
              "system": "http://unitsofmeasure.org"
            }
          },
          {
            "high": {
              "value": 16,
              "code": "g/dL",
              "system": "http://unitsofmeasure.org"
            }
          }
        ],
        "text": {
          "status": "generated",
          "div": "<div xmlns=\"http://www.w3.org/1999/xhtml\"><table class=\"hl7__eu__lab__report\"><tr><th>Test</th><th>06-Jan-2021</th><th>Reference&#xA0;Range</th><th>Unit</th></tr><tr><td>Hemoglobin [Mass/volume] in Blood</td><td>12.4</td><td>12 - 16</td><td></td><td>g/dL</td></tr></table></div>"
        },
        "status": "final",
        "subject": {
          "reference": "urn:uuid:2f8cb3b4-8187-4a45-92dd-8a251790410e",
          "display": "Margaret Beyer"
        },
        "effectiveDateTime": "2021-01-06T03:22:27Z"
      }
    },
    {
      "fullUrl": "urn:uuid:6a6a130a-c445-4535-b0fc-837f4901c81d",
      "resource": {
        "resourceType": "Observation",
        "id": "6a6a130a-c445-4535-b0fc-837f4901c81d",
        "meta": {
          "profile": [
            "http://hl7.eu/fhir/laboratory/StructureDefinition/Observation-resultslab-eu-lab"
          ]
        },
        "performer": [
          {
            "display": "The Central European Lab"
          }
        ],
        "category": [
          {
            "coding": [
              {
                "system": "http://terminology.hl7.org/CodeSystem/observation-category",
                "code": "laboratory"
              }
            ]
          }
        ],
        "code": {
          "coding": [
            {
              "code": "4544-3",
              "system": "http://loinc.org",
              "display": "Hematocrit [Volume Fraction] of Blood by Automated count"
            }
          ],
          "text": "Hematocrit [Volume Fraction] of Blood by Automated count"
        },
        "valueQuantity": {
          "system": "http://unitsofmeasure.org",
          "value": 47.2,
          "unit": "%",
          "code": "%"
        },
        "referenceRange": [
          {
            "low": {
              "value": 36,
              "code": "%",
              "system": "http://unitsofmeasure.org"
            }
          },
          {
            "high": {
              "value": 48,
              "code": "%",
              "system": "http://unitsofmeasure.org"
            }
          }
        ],
        "text": {
          "status": "generated",
          "div": "<div xmlns=\"http://www.w3.org/1999/xhtml\"><table class=\"hl7__eu__lab__report\"><tr><th>Test</th><th>06-Jan-2021</th><th>Reference&#xA0;Range</th><th>Unit</th></tr><tr><td>Hematocrit [Volume Fraction] of Blood by Automated count</td><td>47.2</td><td>36 - 48</td><td></td><td>%</td></tr></table></div>"
        },
        "status": "final",
        "subject": {
          "reference": "urn:uuid:2f8cb3b4-8187-4a45-92dd-8a251790410e",
          "display": "Margaret Beyer"
        },
        "effectiveDateTime": "2021-01-06T03:22:27Z"
      }
    },
    {
      "fullUrl": "urn:uuid:d90be8f2-f4ca-4fb8-a427-1526c7b35776",
      "resource": {
        "resourceType": "Observation",
        "id": "d90be8f2-f4ca-4fb8-a427-1526c7b35776",
        "meta": {
          "profile": [
            "http://hl7.eu/fhir/laboratory/StructureDefinition/Observation-resultslab-eu-lab"
          ]
        },
        "performer": [
          {
            "display": "The Central European Lab"
          }
        ],
        "category": [
          {
            "coding": [
              {
                "system": "http://terminology.hl7.org/CodeSystem/observation-category",
                "code": "laboratory"
              }
            ]
          }
        ],
        "code": {
          "coding": [
            {
              "code": "787-2",
              "system": "http://loinc.org",
              "display": "MCV [Entitic volume] by Automated count"
            }
          ],
          "text": "MCV [Entitic volume] by Automated count"
        },
        "valueQuantity": {
          "system": "http://unitsofmeasure.org",
          "value": 86.2,
          "unit": "fL",
          "code": "fL"
        },
        "referenceRange": [
          {
            "low": {
              "value": 78,
              "code": "fL",
              "system": "http://unitsofmeasure.org"
            }
          },
          {
            "high": {
              "value": 98,
              "code": "fL",
              "system": "http://unitsofmeasure.org"
            }
          }
        ],
        "text": {
          "status": "generated",
          "div": "<div xmlns=\"http://www.w3.org/1999/xhtml\"><table class=\"hl7__eu__lab__report\"><tr><th>Test</th><th>06-Jan-2021</th><th>Reference&#xA0;Range</th><th>Unit</th></tr><tr><td>MCV [Entitic volume] by Automated count</td><td>86.2</td><td>78 - 98</td><td></td><td>fL</td></tr></table></div>"
        },
        "status": "final",
        "subject": {
          "reference": "urn:uuid:2f8cb3b4-8187-4a45-92dd-8a251790410e",
          "display": "Margaret Beyer"
        },
        "effectiveDateTime": "2021-01-06T03:22:27Z"
      }
    },
    {
      "fullUrl": "urn:uuid:2c8015e5-5ebb-44d4-ba49-2ba5d27864ec",
      "resource": {
        "resourceType": "Observation",
        "id": "2c8015e5-5ebb-44d4-ba49-2ba5d27864ec",
        "meta": {
          "profile": [
            "http://hl7.eu/fhir/laboratory/StructureDefinition/Observation-resultslab-eu-lab"
          ]
        },
        "performer": [
          {
            "display": "The Central European Lab"
          }
        ],
        "category": [
          {
            "coding": [
              {
                "system": "http://terminology.hl7.org/CodeSystem/observation-category",
                "code": "laboratory"
              }
            ]
          }
        ],
        "code": {
          "coding": [
            {
              "code": "785-6",
              "system": "http://loinc.org",
              "display": "MCH [Entitic mass] by Automated count"
            }
          ],
          "text": "MCH [Entitic mass] by Automated count"
        },
        "valueQuantity": {
          "system": "http://unitsofmeasure.org",
          "value": 28.4,
          "unit": "pg",
          "code": "pg"
        },
        "referenceRange": [
          {
            "low": {
              "value": 27,
              "code": "pg",
              "system": "http://unitsofmeasure.org"
            }
          },
          {
            "high": {
              "value": 33,
              "code": "pg",
              "system": "http://unitsofmeasure.org"
            }
          }
        ],
        "text": {
          "status": "generated",
          "div": "<div xmlns=\"http://www.w3.org/1999/xhtml\"><table class=\"hl7__eu__lab__report\"><tr><th>Test</th><th>06-Jan-2021</th><th>Reference&#xA0;Range</th><th>Unit</th></tr><tr><td>MCH [Entitic mass] by Automated count</td><td>28.4</td><td>27 - 33</td><td></td><td>pg</td></tr></table></div>"
        },
        "status": "final",
        "subject": {
          "reference": "urn:uuid:2f8cb3b4-8187-4a45-92dd-8a251790410e",
          "display": "Margaret Beyer"
        },
        "effectiveDateTime": "2021-01-06T03:22:27Z"
      }
    },
    {
      "fullUrl": "urn:uuid:ba11bf3f-58af-41db-b0a3-83e14621b53f",
      "resource": {
        "resourceType": "Observation",
        "id": "ba11bf3f-58af-41db-b0a3-83e14621b53f",
        "meta": {
          "profile": [
            "http://hl7.eu/fhir/laboratory/StructureDefinition/Observation-resultslab-eu-lab"
          ]
        },
        "performer": [
          {
            "display": "The Central European Lab"
          }
        ],
        "category": [
          {
            "coding": [
              {
                "system": "http://terminology.hl7.org/CodeSystem/observation-category",
                "code": "laboratory"
              }
            ]
          }
        ],
        "code": {
          "coding": [
            {
              "code": "786-4",
              "system": "http://loinc.org",
              "display": "MCHC [Mass/volume] by Automated count"
            }
          ],
          "text": "MCHC [Mass/volume] by Automated count"
        },
        "valueQuantity": {
          "system": "http://unitsofmeasure.org",
          "value": 33.1,
          "unit": "g/dL",
          "code": "g/dL"
        },
        "referenceRange": [
          {
            "low": {
              "value": 31.5,
              "code": "g/dL",
              "system": "http://unitsofmeasure.org"
            }
          },
          {
            "high": {
              "value": 35,
              "code": "g/dL",
              "system": "http://unitsofmeasure.org"
            }
          }
        ],
        "text": {
          "status": "generated",
          "div": "<div xmlns=\"http://www.w3.org/1999/xhtml\"><table class=\"hl7__eu__lab__report\"><tr><th>Test</th><th>06-Jan-2021</th><th>Reference&#xA0;Range</th><th>Unit</th></tr><tr><td>MCHC [Mass/volume] by Automated count</td><td>33.1</td><td>31.5 - 35</td><td></td><td>g/dL</td></tr></table></div>"
        },
        "status": "final",
        "subject": {
          "reference": "urn:uuid:2f8cb3b4-8187-4a45-92dd-8a251790410e",
          "display": "Margaret Beyer"
        },
        "effectiveDateTime": "2021-01-06T03:22:27Z"
      }
    },
    {
      "fullUrl": "urn:uuid:d668e5e0-0135-446e-b676-6dcd0f899c04",
      "resource": {
        "resourceType": "Observation",
        "id": "d668e5e0-0135-446e-b676-6dcd0f899c04",
        "meta": {
          "profile": [
            "http://hl7.eu/fhir/laboratory/StructureDefinition/Observation-resultslab-eu-lab"
          ]
        },
        "performer": [
          {
            "display": "The Central European Lab"
          }
        ],
        "category": [
          {
            "coding": [
              {
                "system": "http://terminology.hl7.org/CodeSystem/observation-category",
                "code": "laboratory"
              }
            ]
          }
        ],
        "code": {
          "coding": [
            {
              "code": "21000-5",
              "system": "http://loinc.org",
              "display": "Erythrocyte distribution width [Entitic volume] by Automated count"
            }
          ],
          "text": "Erythrocyte distribution width [Entitic volume] by Automated count"
        },
        "valueQuantity": {
          "system": "http://unitsofmeasure.org",
          "value": 41.6,
          "unit": "fL",
          "code": "fL"
        },
        "referenceRange": [
          {
            "low": {
              "value": 36,
              "code": "fL",
              "system": "http://unitsofmeasure.org"
            }
          },
          {
            "high": {
              "value": 55,
              "code": "fL",
              "system": "http://unitsofmeasure.org"
            }
          }
        ],
        "text": {
          "status": "generated",
          "div": "<div xmlns=\"http://www.w3.org/1999/xhtml\"><table class=\"hl7__eu__lab__report\"><tr><th>Test</th><th>06-Jan-2021</th><th>Reference&#xA0;Range</th><th>Unit</th></tr><tr><td>Erythrocyte distribution width [Entitic volume] by Automated count</td><td>41.6</td><td>36 - 55</td><td></td><td>fL</td></tr></table></div>"
        },
        "status": "final",
        "subject": {
          "reference": "urn:uuid:2f8cb3b4-8187-4a45-92dd-8a251790410e",
          "display": "Margaret Beyer"
        },
        "effectiveDateTime": "2021-01-06T03:22:27Z"
      }
    },
    {
      "fullUrl": "urn:uuid:7591d078-3877-4895-b20d-01ef459fc49c",
      "resource": {
        "resourceType": "Observation",
        "id": "7591d078-3877-4895-b20d-01ef459fc49c",
        "meta": {
          "profile": [
            "http://hl7.eu/fhir/laboratory/StructureDefinition/Observation-resultslab-eu-lab"
          ]
        },
        "performer": [
          {
            "display": "The Central European Lab"
          }
        ],
        "category": [
          {
            "coding": [
              {
                "system": "http://terminology.hl7.org/CodeSystem/observation-category",
                "code": "laboratory"
              }
            ]
          }
        ],
        "code": {
          "coding": [
            {
              "code": "777-3",
              "system": "http://loinc.org",
              "display": "Platelets [#/volume] in Blood by Automated count"
            }
          ],
          "text": "Platelets [#/volume] in Blood by Automated count"
        },
        "valueQuantity": {
          "system": "http://unitsofmeasure.org",
          "value": 309.2,
          "unit": "10*3/uL",
          "code": "10*3/uL"
        },
        "referenceRange": [
          {
            "low": {
              "value": 150,
              "code": "10*3/uL",
              "system": "http://unitsofmeasure.org"
            }
          },
          {
            "high": {
              "value": 450,
              "code": "10*3/uL",
              "system": "http://unitsofmeasure.org"
            }
          }
        ],
        "text": {
          "status": "generated",
          "div": "<div xmlns=\"http://www.w3.org/1999/xhtml\"><table class=\"hl7__eu__lab__report\"><tr><th>Test</th><th>06-Jan-2021</th><th>Reference&#xA0;Range</th><th>Unit</th></tr><tr><td>Platelets [#/volume] in Blood by Automated count</td><td>309.2</td><td>150 - 450</td><td></td><td>10*3/uL</td></tr></table></div>"
        },
        "status": "final",
        "subject": {
          "reference": "urn:uuid:2f8cb3b4-8187-4a45-92dd-8a251790410e",
          "display": "Margaret Beyer"
        },
        "effectiveDateTime": "2021-01-06T03:22:27Z"
      }
    },
    {
      "fullUrl": "urn:uuid:585257a0-8c74-4eb7-b6c1-b3c332fdacdd",
      "resource": {
        "resourceType": "Observation",
        "id": "585257a0-8c74-4eb7-b6c1-b3c332fdacdd",
        "meta": {
          "profile": [
            "http://hl7.eu/fhir/laboratory/StructureDefinition/Observation-resultslab-eu-lab"
          ]
        },
        "performer": [
          {
            "display": "The Central European Lab"
          }
        ],
        "category": [
          {
            "coding": [
              {
                "system": "http://terminology.hl7.org/CodeSystem/observation-category",
                "code": "laboratory"
              }
            ]
          }
        ],
        "code": {
          "coding": [
            {
              "code": "32207-3",
              "system": "http://loinc.org",
              "display": "Platelet distribution width [Entitic volume] in Blood by Automated count"
            }
          ],
          "text": "Platelet distribution width [Entitic volume] in Blood by Automated count"
        },
        "valueQuantity": {
          "system": "http://unitsofmeasure.org",
          "value": 482,
          "unit": "fL",
          "code": "fL"
        },
        "referenceRange": [
          {
            "low": {
              "value": 13.4,
              "code": "fL",
              "system": "http://unitsofmeasure.org"
            }
          },
          {
            "high": {
              "value": 17.4,
              "code": "fL",
              "system": "http://unitsofmeasure.org"
            }
          }
        ],
        "interpretation": [
          {
            "coding": [
              {
                "code": "H",
                "system": "http://terminology.hl7.org/CodeSystem/v3-ObservationInterpretation",
                "display": "High"
              }
            ]
          }
        ],
        "text": {
          "status": "generated",
          "div": "<div xmlns=\"http://www.w3.org/1999/xhtml\"><table class=\"hl7__eu__lab__report\"><tr><th>Test</th><th>06-Jan-2021</th><th>Reference&#xA0;Range</th><th>Unit</th></tr><tr><td>Platelet distribution width [Entitic volume] in Blood by Automated count</td><td>482.0</td><td>13.4 - 17.4</td><td>H</td><td>fL</td></tr></table></div>"
        },
        "status": "final",
        "subject": {
          "reference": "urn:uuid:2f8cb3b4-8187-4a45-92dd-8a251790410e",
          "display": "Margaret Beyer"
        },
        "effectiveDateTime": "2021-01-06T03:22:27Z"
      }
    },
    {
      "fullUrl": "urn:uuid:01df97c9-11fb-4bce-853d-3973f0fd25dd",
      "resource": {
        "resourceType": "Observation",
        "id": "01df97c9-11fb-4bce-853d-3973f0fd25dd",
        "meta": {
          "profile": [
            "http://hl7.eu/fhir/laboratory/StructureDefinition/Observation-resultslab-eu-lab"
          ]
        },
        "performer": [
          {
            "display": "The Central European Lab"
          }
        ],
        "category": [
          {
            "coding": [
              {
                "system": "http://terminology.hl7.org/CodeSystem/observation-category",
                "code": "laboratory"
              }
            ]
          }
        ],
        "code": {
          "coding": [
            {
              "code": "32623-1",
              "system": "http://loinc.org",
              "display": "Platelet mean volume [Entitic volume] in Blood by Automated count"
            }
          ],
          "text": "Platelet mean volume [Entitic volume] in Blood by Automated count"
        },
        "valueQuantity": {
          "system": "http://unitsofmeasure.org",
          "value": 11.4,
          "unit": "fL",
          "code": "fL"
        },
        "referenceRange": [
          {
            "low": {
              "value": 9.7,
              "code": "fL",
              "system": "http://unitsofmeasure.org"
            }
          },
          {
            "high": {
              "value": 12,
              "code": "fL",
              "system": "http://unitsofmeasure.org"
            }
          }
        ],
        "text": {
          "status": "generated",
          "div": "<div xmlns=\"http://www.w3.org/1999/xhtml\"><table class=\"hl7__eu__lab__report\"><tr><th>Test</th><th>06-Jan-2021</th><th>Reference&#xA0;Range</th><th>Unit</th></tr><tr><td>Platelet mean volume [Entitic volume] in Blood by Automated count</td><td>11.4</td><td>9.7 - 12</td><td></td><td>fL</td></tr></table></div>"
        },
        "status": "final",
        "subject": {
          "reference": "urn:uuid:2f8cb3b4-8187-4a45-92dd-8a251790410e",
          "display": "Margaret Beyer"
        },
        "effectiveDateTime": "2021-01-06T03:22:27Z"
      }
    },
    {
      "fullUrl": "urn:uuid:c07bb391-1968-4d5b-9a77-3bb9e4917f22",
      "resource": {
        "resourceType": "Device",
        "id": "c07bb391-1968-4d5b-9a77-3bb9e4917f22",
        "deviceName": [
          {
            "name": "SYNDERAI Synthetic Generator",
            "type": "manufacturer-name"
          }
        ],
        "version": [
          {
            "value": "5.0"
          }
        ],
        "text": {
          "status": "generated",
          "div": "<div xmlns=\"http://www.w3.org/1999/xhtml\">SYNDERAI Synthetic Generator v5.0</div>"
        },
        "status": "active",
        "distinctIdentifier": "synderai-generator-50",
        "manufacturer": "SYNDERAI Project"
      }
    },
    {
      "fullUrl": "urn:uuid:24211575-a538-4bf1-88e1-1a20ad9e0e47",
      "resource": {
        "resourceType": "Provenance",
        "id": "24211575-a538-4bf1-88e1-1a20ad9e0e47",
        "target": [
          {
            "reference": "Patient/2f8cb3b4-8187-4a45-92dd-8a251790410e"
          },
          {
            "reference": "Bundle/67469093-ca3a-4d86-bfc6-6e6667763f24"
          },
          {
            "reference": "Composition/4ac4d37c-8d4e-4da1-a79e-3465e4402422"
          },
          {
            "reference": "PractitionerRole/1146de30-105a-450e-b76d-37c327cf4382"
          },
          {
            "reference": "Organization/b79e7308-e15e-4aa9-863d-b56469f540dc"
          },
          {
            "reference": "Practitioner/fb5fe473-5630-44a9-8b4a-be2004d3676a"
          }
        ],
        "activity": {
          "text": "Synthetic Example Data Generation"
        },
        "policy": [
          "https://synderai.net/synderai-synthetic-data-policy"
        ],
        "agent": [
          {
            "type": {
              "text": "author"
            },
            "who": {
              "reference": "Device/c07bb391-1968-4d5b-9a77-3bb9e4917f22"
            }
          }
        ],
        "reason": [
          {
            "text": "Interoperability Testing and Training (non-clinical use)"
          }
        ],
        "text": {
          "status": "generated",
          "div": "<div xmlns=\"http://www.w3.org/1999/xhtml\">Provenance for SYNDERAI Synthetic Example Data Resource</div>"
        },
        "recorded": "2021-01-06T03:22:27Z"
      }
    }
  ],
  "type": "document",
  "timestamp": "2021-01-06T03:22:27Z"
}
