{
  "resourceType": "Bundle",
  "id": "f2e27875-2233-4bd7-876c-4a9f4f7cd785",
  "meta": {
    "profile": [
      "http://hl7.eu/fhir/eps/StructureDefinition/bundle-eu-eps"
    ]
  },
  "identifier": {
    "assigner": {
      "display": "HL7 Europe"
    },
    "system": "urn:oid:2.16.840.1.113883.2.51.999",
    "value": "fe804a66-fd16-4ad9-a350-2955124478c8"
  },
  "entry": [
    {
      "fullUrl": "urn:uuid:5bc51191-3ec0-4e72-b0ed-712b49255aa0",
      "resource": {
        "resourceType": "Composition",
        "id": "5bc51191-3ec0-4e72-b0ed-712b49255aa0",
        "meta": {
          "security": [
            {
              "system": "http://terminology.hl7.org/CodeSystem/v3-ActReason",
              "code": "HTEST"
            },
            {
              "system": "http://terminology.hl7.org/CodeSystem/v3-ActReason",
              "code": "TRAIN"
            }
          ],
          "tag": [
            {
              "system": "https://synderai.net/fhir/CodeSystem/tags",
              "code": "synthetic",
              "display": "SYNDERAI Synthetic data"
            }
          ],
          "profile": [
            "http://hl7.eu/fhir/eps/StructureDefinition/composition-eu-eps"
          ]
        },
        "identifier": {
          "assigner": {
            "display": "HL7 Europe"
          },
          "system": "urn:oid:2.16.840.1.113883.2.51.999",
          "value": "bde60fa7-57b8-407c-a9e8-1d4ed2c4d0fb"
        },
        "type": {
          "coding": [
            {
              "code": "60591-5",
              "system": "http://loinc.org",
              "display": "Patient summary Document"
            }
          ],
          "text": "Patient summary Document"
        },
        "author": [
          {
            "reference": "urn:uuid:7c424b83-27c3-4777-8c47-d1dd61618914"
          }
        ],
        "section": [
          {
            "text": {
              "status": "generated",
              "div": "<div xmlns=\"http://www.w3.org/1999/xhtml\"><table class=\"hl7__ips\"><tr><th>Condition</th><th>Onset Date</th><th>Status</th></tr><tr><td>Osteoarthritis of knee</td><td><span class=\"nb\">25-Oct-2018</span></td><td>active</td></tr></table></div>"
            },
            "entry": [
              {
                "reference": "urn:uuid:18a1ec7b-df35-470f-a05e-d91b262945d0"
              }
            ],
            "code": {
              "coding": [
                {
                  "system": "http://loinc.org",
                  "code": "11450-4",
                  "display": "Problem list - Reported"
                }
              ]
            },
            "title": "Problem list"
          },
          {
            "text": {
              "status": "generated",
              "div": "<div xmlns=\"http://www.w3.org/1999/xhtml\"><table class=\"hl7__ips\"><tr><td>No known medications</td></tr></table></div>"
            },
            "entry": [
              {
                "reference": "urn:uuid:4b46fd57-23d8-4d5f-90ec-e8a02a05ce59"
              }
            ],
            "code": {
              "coding": [
                {
                  "system": "http://loinc.org",
                  "code": "10160-0",
                  "display": "History of Medication use Narrative"
                }
              ]
            },
            "title": "Medication list"
          },
          {
            "text": {
              "status": "generated",
              "div": "<div xmlns=\"http://www.w3.org/1999/xhtml\"><table class=\"hl7__ips\"><tr><th>Vaccine</th><th>Date</th></tr><tr><td>Influenza virus antigen only vaccine product</td><td><span class=\"nb\">17-Apr-2025</span></td></tr><tr><td>Hepatitis A virus antigen only vaccine product</td><td><span class=\"nb\">11-Apr-2024</span></td></tr><tr><td>Clostridium tetani toxoid antigen adsorbed only vaccine product</td><td><span class=\"nb\">11-Apr-2024</span></td></tr><tr><td>SARS-CoV-2 mRNA vaccine</td><td><span class=\"nb\">18-Mar-2021</span></td></tr></table></div>"
            },
            "entry": [
              {
                "reference": "urn:uuid:c9615a70-093b-48fd-8d30-d9a1c916dfac"
              }
            ],
            "code": {
              "coding": [
                {
                  "system": "http://loinc.org",
                  "code": "11369-6",
                  "display": "History of Immunization note"
                }
              ]
            },
            "title": "Immunizations list"
          },
          {
            "text": {
              "status": "generated",
              "div": "<div xmlns=\"http://www.w3.org/1999/xhtml\"><table class=\"hl7__ips\"><tr><th>Procedure</th><th>Date</th><th>Reason</th></tr><tr><td>Suture open wound</td><td><span class=\"nb\">22-Mar-2024</span></td><td>Laceration of thigh</td></tr><tr><td>Depression screening</td><td><span class=\"nb\">12-May-2022</span></td><td>-</td></tr><tr><td>Medication reconciliation</td><td><span class=\"nb\">12-May-2022</span></td><td>-</td></tr><tr><td>Assessment of health and social care needs</td><td><span class=\"nb\">12-May-2022</span></td><td>-</td></tr><tr><td>Screening for drug abuse</td><td><span class=\"nb\">12-May-2022</span></td><td>-</td></tr><tr><td>Screening for domestic abuse</td><td><span class=\"nb\">12-May-2022</span></td><td>-</td></tr><tr><td>Assessment of substance use</td><td><span class=\"nb\">12-May-2022</span></td><td>-</td></tr><tr><td>Depression screening using Patient Health Questionnaire Two-Item score (procedure)</td><td><span class=\"nb\">12-May-2022</span></td><td>-</td></tr><tr><td>Postoperative care</td><td><span class=\"nb\">06-Dec-2018</span></td><td>History of tubal ligation (situation)</td></tr><tr><td>Ligation of bilateral fallopian tubes</td><td><span class=\"nb\">05-Dec-2018</span></td><td>Sterilization requested (situation)</td></tr></table></div>"
            },
            "entry": [
              {
                "reference": "urn:uuid:fa13fcf4-39e1-4475-ae72-a7f5f15f2f15"
              }
            ],
            "code": {
              "coding": [
                {
                  "system": "http://loinc.org",
                  "code": "47519-4",
                  "display": "History of Procedures Document"
                }
              ]
            },
            "title": "Procedure History list"
          },
          {
            "text": {
              "status": "generated",
              "div": "<div xmlns=\"http://www.w3.org/1999/xhtml\"><table class=\"hl7__ips\"><tr><th>Allergy/Intolerance</th><th>Onset Date</th><th>Status</th><th>Type</th><th>Reaction</th></tr><tr><td></td><td>?</td><td>active</td><td>?</td><td></td></tr></table></div>"
            },
            "entry": [
              {
                "reference": "urn:uuid:4deafcb6-dbfa-4f91-9d6a-a172800817f0"
              }
            ],
            "code": {
              "coding": [
                {
                  "system": "http://loinc.org",
                  "code": "48765-2",
                  "display": "Allergies and adverse reactions Document"
                }
              ]
            },
            "title": "Allergies and Intolerances"
          },
          {
            "text": {
              "status": "generated",
              "div": "<div xmlns=\"http://www.w3.org/1999/xhtml\"><table class=\"hl7__ips\"><tr><th>Active Planned Care / Goals</th><th>Start Date</th><th>Reason</th></tr><tr><td>Musculoskeletal care</td><td><span class=\"nb\">25-Oct-2018</span></td><td>Osteoarthritis of knee</td></tr><tr><td><ul><li>Reduce knee pain severity to mild or less</li><li>Increase ability to walk without significant limitation</li><li>Engage in moderate physical activity at least 150 minutes per week</li></ul></td><td></td><td></td></tr></table></div>"
            },
            "title": "Care Plan",
            "code": {
              "coding": [
                {
                  "code": "18776-5",
                  "system": "http://loinc.org",
                  "display": "Plan of care note"
                }
              ]
            }
          },
          {
            "text": {
              "status": "generated",
              "div": "<div xmlns=\"http://www.w3.org/1999/xhtml\"><table class=\"hl7__ips\"><tr><th>Vital Signs</th><th>2025-04-17</th><th>2024-04-11</th></tr><tr><td>Body Height</td><td>172.4 cm</td><td>172.4 cm</td></tr><tr><td>Pain severity - 0-10 verbal numeric rating [Score] - Reported</td><td>0 {score}</td><td>3 {score}</td></tr><tr><td>Body Weight</td><td>89.6 kg</td><td>89.6 kg</td></tr><tr><td>Body mass index (BMI) [Ratio]</td><td>30.2 kg/m2</td><td>30.2 kg/m2</td></tr><tr><td>Diastolic Blood Pressure</td><td>80 mm[Hg]</td><td>85 mm[Hg]</td></tr><tr><td>Systolic Blood Pressure</td><td>117 mm[Hg]</td><td>118 mm[Hg]</td></tr><tr><td>Heart rate</td><td>85 /min</td><td>70 /min</td></tr><tr><td>Respiratory rate</td><td>13 /min</td><td>14 /min</td></tr></table></div>"
            },
            "entry": [
              {
                "reference": "urn:uuid:68f524fc-3ab3-4ce7-aad7-4998f2aea175"
              }
            ],
            "code": {
              "coding": [
                {
                  "system": "http://loinc.org",
                  "code": "8716-3",
                  "display": "Vital signs note"
                }
              ]
            },
            "title": "Vital Signs"
          },
          {
            "text": {
              "status": "generated",
              "div": "<div xmlns=\"http://www.w3.org/1999/xhtml\"><table class=\"hl7__ips\"><table class=\"hl7__ips\"><thead><tr><th>Recent Lab Observations</th><th>06-APR-2023</th><th>Reference&#xA0;Range</th><th>Unit</th></tr></thead><tbody><tr><td>Cholesterol [Mass/volume] in Serum or Plasma</td><td>170.4</td><td>130 - 200</td><td>mg/dL</td></tr><tr><td>Triglyceride [Mass/volume] in Serum or Plasma</td><td>109.5</td><td>35 - 150</td><td>mg/dL</td></tr><tr><td>Cholesterol in LDL [Mass/volume] in Serum or Plasma by Direct assay</td><td>94.5</td><td>0 - 130</td><td>mg/dL</td></tr><tr><td>Cholesterol in HDL [Mass/volume] in Serum or Plasma</td><td>54.0</td><td>40 - 60</td><td>mg/dL</td></tr></tbody></table></table></div>"
            },
            "title": "Relevant diagnostic tests/laboratory data",
            "code": {
              "coding": [
                {
                  "code": "30954-2",
                  "system": "http://loinc.org",
                  "display": "Relevant diagnostic tests/laboratory data note"
                }
              ]
            }
          },
          {
            "text": {
              "status": "generated",
              "div": "<div xmlns=\"http://www.w3.org/1999/xhtml\"><table class=\"hl7__ips\"><tr><th>Device</th><th>Date (since)</th></tr><tr><td>Walker (physical object)</td><td><span class=\"nb\">25-Oct-2018</span></td></tr></table></div>"
            },
            "entry": [
              {
                "reference": "urn:uuid:3ed6c5f5-7f04-4eb9-8b2c-81380c14aba3"
              }
            ],
            "code": {
              "coding": [
                {
                  "system": "http://loinc.org",
                  "code": "46264-8",
                  "display": "History of medical device use"
                }
              ]
            },
            "title": "Device Use"
          }
        ],
        "title": "European Patient Summary",
        "status": "final",
        "subject": {
          "reference": "urn:uuid:c8c51609-d393-40ac-8f78-22c9acd2525f",
          "display": "Mary Campbell"
        },
        "custodian": {
          "reference": "urn:uuid:03b34348-cbed-489c-b8d6-e06ccce4950c"
        },
        "date": "2023-04-06",
        "confidentiality": "N"
      }
    },
    {
      "fullUrl": "urn:uuid:c8c51609-d393-40ac-8f78-22c9acd2525f",
      "resource": {
        "resourceType": "Patient",
        "id": "c8c51609-d393-40ac-8f78-22c9acd2525f",
        "meta": {
          "security": [
            {
              "system": "http://terminology.hl7.org/CodeSystem/v3-ActReason",
              "code": "HTEST"
            },
            {
              "system": "http://terminology.hl7.org/CodeSystem/v3-ActReason",
              "code": "TRAIN"
            }
          ],
          "tag": [
            {
              "system": "https://synderai.net/fhir/CodeSystem/tags",
              "code": "synthetic",
              "display": "SYNDERAI Synthetic data"
            }
          ],
          "profile": [
            "http://hl7.eu/fhir/eps/StructureDefinition/patient-eu-eps"
          ]
        },
        "identifier": [
          {
            "type": {
              "coding": [
                {
                  "code": "PT",
                  "system": "http://terminology.hl7.org/CodeSystem/v2-0203"
                }
              ]
            },
            "system": "http://ec.europa.eu/identifier/eci",
            "value": "7109-977837-6"
          },
          {
            "type": {
              "coding": [
                {
                  "code": "MR",
                  "system": "http://terminology.hl7.org/CodeSystem/v2-0203"
                }
              ]
            },
            "system": "http://local.setting.eu/identifier",
            "value": "aeb434d6-2604-40ec-0936-50ceb44d44a4"
          }
        ],
        "name": [
          {
            "given": [
              "Mary"
            ],
            "family": "Campbell",
            "text": "Mary Campbell"
          }
        ],
        "address": [
          {
            "line": [
              "7 Barnett locks"
            ],
            "use": "home",
            "type": "physical",
            "postalCode": "M1",
            "city": "West Joseph",
            "country": "United Kingdom"
          }
        ],
        "telecom": [
          {
            "system": "phone",
            "value": "+441414960345"
          }
        ],
        "extension": [
          {
            "url": "http://hl7.org/fhir/StructureDefinition/patient-nationality",
            "valueCodeableConcept": {
              "coding": [
                {
                  "code": "GB",
                  "system": "http://hl7.org/fhir/ValueSet/country"
                }
              ]
            }
          }
        ],
        "text": {
          "status": "generated",
          "div": "<div xmlns=\"http://www.w3.org/1999/xhtml\"><table class=\"hl7__ips\"><tr><td>Mary Campbell</td><td>female</td><td>10-Jul-1986</td></tr></table></div>"
        },
        "gender": "female",
        "birthDate": "1986-07-10"
      }
    },
    {
      "fullUrl": "urn:uuid:7c424b83-27c3-4777-8c47-d1dd61618914",
      "resource": {
        "resourceType": "PractitionerRole",
        "id": "7c424b83-27c3-4777-8c47-d1dd61618914",
        "meta": {
          "profile": [
            "http://hl7.eu/fhir/base/StructureDefinition/practitionerRole-eu"
          ]
        },
        "text": {
          "status": "generated",
          "div": "<div xmlns=\"http://www.w3.org/1999/xhtml\"><table class=\"hl7__ips\">Provider Role Id 7c424b83-27c3-4777-8c47-d1dd61618914</table></div>"
        },
        "practitioner": {
          "reference": "urn:uuid:5fc1cb47-51cf-40b1-83dd-07ce6010bf68"
        },
        "organization": {
          "reference": "urn:uuid:03b34348-cbed-489c-b8d6-e06ccce4950c"
        }
      }
    },
    {
      "fullUrl": "urn:uuid:03b34348-cbed-489c-b8d6-e06ccce4950c",
      "resource": {
        "resourceType": "Organization",
        "id": "03b34348-cbed-489c-b8d6-e06ccce4950c",
        "meta": {
          "profile": [
            "http://hl7.eu/fhir/base/StructureDefinition/organization-eu"
          ]
        },
        "identifier": [
          {
            "assigner": {
              "display": "HL7 Europe"
            },
            "system": "urn:oid:2.16.840.1.113883.2.51.999",
            "value": "acaf91df-439e-4130-8814-c1fb8f829c2c"
          }
        ],
        "address": [
          {
            "line": [
              "City Road 204"
            ],
            "city": "Manchester",
            "postalCode": "M3 3",
            "country": "United Kingdom"
          }
        ],
        "text": {
          "status": "generated",
          "div": "<div xmlns=\"http://www.w3.org/1999/xhtml\"><table class=\"hl7__ips\">Cornbrook Medical Practice</table></div>"
        },
        "name": "Cornbrook Medical Practice"
      }
    },
    {
      "fullUrl": "urn:uuid:5fc1cb47-51cf-40b1-83dd-07ce6010bf68",
      "resource": {
        "resourceType": "Practitioner",
        "id": "5fc1cb47-51cf-40b1-83dd-07ce6010bf68",
        "meta": {
          "profile": [
            "http://hl7.eu/fhir/base/StructureDefinition/practitioner-eu"
          ]
        },
        "name": [
          {
            "prefix": [
              "Dr."
            ],
            "given": [
              "Hel"
            ],
            "family": "Ping"
          }
        ],
        "text": {
          "status": "generated",
          "div": "<div xmlns=\"http://www.w3.org/1999/xhtml\"><table class=\"hl7__ips\">Dr. Hel Ping</table></div>"
        }
      }
    },
    {
      "fullUrl": "urn:uuid:18a1ec7b-df35-470f-a05e-d91b262945d0",
      "resource": {
        "resourceType": "Condition",
        "id": "18a1ec7b-df35-470f-a05e-d91b262945d0",
        "meta": {
          "profile": [
            "http://hl7.org/fhir/uv/ips/StructureDefinition/Condition-uv-ips"
          ]
        },
        "category": [
          {
            "coding": [
              {
                "code": "problem-list-item",
                "system": "http://terminology.hl7.org/CodeSystem/condition-category",
                "display": "Problem List Item"
              }
            ]
          }
        ],
        "code": {
          "coding": [
            {
              "code": "239873007",
              "system": "http://snomed.info/sct",
              "display": "Osteoarthritis of knee (disorder)"
            }
          ],
          "text": "Osteoarthritis of knee"
        },
        "text": {
          "status": "generated",
          "div": "<div xmlns=\"http://www.w3.org/1999/xhtml\"><table class=\"hl7__ips\"><tr><td>Osteoarthritis of knee</td><td><span class=\"nb\">25-Oct-2018</span></td><td>active</td></tr></table></div>"
        },
        "onsetDateTime": "2018-10-25",
        "subject": {
          "reference": "urn:uuid:c8c51609-d393-40ac-8f78-22c9acd2525f",
          "display": "Mary Campbell"
        },
        "asserter": {
          "reference": "urn:uuid:7c424b83-27c3-4777-8c47-d1dd61618914",
          "display": "Cornbrook Medical Practice"
        }
      }
    },
    {
      "fullUrl": "urn:uuid:b01d2d6d-9747-44bf-9d3d-e6b0503efca9",
      "resource": {
        "resourceType": "Condition",
        "id": "b01d2d6d-9747-44bf-9d3d-e6b0503efca9",
        "meta": {
          "profile": [
            "http://hl7.org/fhir/uv/ips/StructureDefinition/Condition-uv-ips"
          ]
        },
        "category": [
          {
            "coding": [
              {
                "code": "problem-list-item",
                "system": "http://terminology.hl7.org/CodeSystem/condition-category",
                "display": "Problem List Item"
              }
            ]
          }
        ],
        "code": {
          "coding": [
            {
              "code": "283385000",
              "system": "http://snomed.info/sct",
              "display": "Laceration of thigh (disorder)"
            }
          ],
          "text": "Laceration of thigh"
        },
        "text": {
          "status": "generated",
          "div": "<div xmlns=\"http://www.w3.org/1999/xhtml\"><table class=\"hl7__ips\"><tr><td><span class=\"grayedout\">Laceration of thigh</span></td><td><span class=\"nb\">22-Mar-2024 - 16-Apr-2024</span></td><td><span class=\"grayedout\">inactive</span></td></tr></table></div>"
        },
        "onsetDateTime": "2024-03-22",
        "abatementDateTime": "2024-04-16",
        "subject": {
          "reference": "urn:uuid:c8c51609-d393-40ac-8f78-22c9acd2525f",
          "display": "Mary Campbell"
        },
        "asserter": {
          "reference": "urn:uuid:7c424b83-27c3-4777-8c47-d1dd61618914",
          "display": "Cornbrook Medical Practice"
        }
      }
    },
    {
      "fullUrl": "urn:uuid:deae9462-3979-41c2-aefa-cbd28e38eb31",
      "resource": {
        "resourceType": "Condition",
        "id": "deae9462-3979-41c2-aefa-cbd28e38eb31",
        "meta": {
          "profile": [
            "http://hl7.org/fhir/uv/ips/StructureDefinition/Condition-uv-ips"
          ]
        },
        "category": [
          {
            "coding": [
              {
                "code": "problem-list-item",
                "system": "http://terminology.hl7.org/CodeSystem/condition-category",
                "display": "Problem List Item"
              }
            ]
          }
        ],
        "code": {
          "coding": [
            {
              "code": "312608009",
              "system": "http://snomed.info/sct",
              "display": "Laceration - injury (disorder)"
            }
          ],
          "text": "Laceration - injury"
        },
        "text": {
          "status": "generated",
          "div": "<div xmlns=\"http://www.w3.org/1999/xhtml\"><table class=\"hl7__ips\"><tr><td><span class=\"grayedout\">Laceration - injury</span></td><td><span class=\"nb\">22-Mar-2024 - 16-Apr-2024</span></td><td><span class=\"grayedout\">inactive</span></td></tr></table></div>"
        },
        "onsetDateTime": "2024-03-22",
        "abatementDateTime": "2024-04-16",
        "subject": {
          "reference": "urn:uuid:c8c51609-d393-40ac-8f78-22c9acd2525f",
          "display": "Mary Campbell"
        },
        "asserter": {
          "reference": "urn:uuid:7c424b83-27c3-4777-8c47-d1dd61618914",
          "display": "Cornbrook Medical Practice"
        }
      }
    },
    {
      "fullUrl": "urn:uuid:1b95153a-0a68-406e-90f0-7fde9b3066c3",
      "resource": {
        "resourceType": "Condition",
        "id": "1b95153a-0a68-406e-90f0-7fde9b3066c3",
        "meta": {
          "profile": [
            "http://hl7.org/fhir/uv/ips/StructureDefinition/Condition-uv-ips"
          ]
        },
        "category": [
          {
            "coding": [
              {
                "code": "problem-list-item",
                "system": "http://terminology.hl7.org/CodeSystem/condition-category",
                "display": "Problem List Item"
              }
            ]
          }
        ],
        "code": {
          "coding": [
            {
              "code": "10509002",
              "system": "http://snomed.info/sct",
              "display": "Acute bronchitis (disorder)"
            }
          ],
          "text": "Acute bronchitis"
        },
        "text": {
          "status": "generated",
          "div": "<div xmlns=\"http://www.w3.org/1999/xhtml\"><table class=\"hl7__ips\"><tr><td><span class=\"grayedout\">Acute bronchitis</span></td><td><span class=\"nb\">03-May-2022 - 17-May-2022</span></td><td><span class=\"grayedout\">inactive</span></td></tr></table></div>"
        },
        "onsetDateTime": "2022-05-03",
        "abatementDateTime": "2022-05-17",
        "subject": {
          "reference": "urn:uuid:c8c51609-d393-40ac-8f78-22c9acd2525f",
          "display": "Mary Campbell"
        },
        "asserter": {
          "reference": "urn:uuid:7c424b83-27c3-4777-8c47-d1dd61618914",
          "display": "Cornbrook Medical Practice"
        }
      }
    },
    {
      "fullUrl": "urn:uuid:e037dd67-c4bd-46ec-a0c0-dc7eb8bdea89",
      "resource": {
        "resourceType": "Condition",
        "id": "e037dd67-c4bd-46ec-a0c0-dc7eb8bdea89",
        "meta": {
          "profile": [
            "http://hl7.org/fhir/uv/ips/StructureDefinition/Condition-uv-ips"
          ]
        },
        "category": [
          {
            "coding": [
              {
                "code": "problem-list-item",
                "system": "http://terminology.hl7.org/CodeSystem/condition-category",
                "display": "Problem List Item"
              }
            ]
          }
        ],
        "code": {
          "coding": [
            {
              "code": "840539006",
              "system": "http://snomed.info/sct",
              "display": "Disease caused by severe acute respiratory syndrome coronavirus 2 (disorder)"
            }
          ],
          "text": "COVID-19"
        },
        "text": {
          "status": "generated",
          "div": "<div xmlns=\"http://www.w3.org/1999/xhtml\"><table class=\"hl7__ips\"><tr><td><span class=\"grayedout\">COVID-19</span></td><td><span class=\"nb\">12-Apr-2020 - 01-May-2020</span></td><td><span class=\"grayedout\">inactive</span></td></tr></table></div>"
        },
        "onsetDateTime": "2020-04-12",
        "abatementDateTime": "2020-05-01",
        "subject": {
          "reference": "urn:uuid:c8c51609-d393-40ac-8f78-22c9acd2525f",
          "display": "Mary Campbell"
        },
        "asserter": {
          "reference": "urn:uuid:7c424b83-27c3-4777-8c47-d1dd61618914",
          "display": "Cornbrook Medical Practice"
        }
      }
    },
    {
      "fullUrl": "urn:uuid:f60acd9a-ca34-4b08-8642-43f8637c7ad5",
      "resource": {
        "resourceType": "Condition",
        "id": "f60acd9a-ca34-4b08-8642-43f8637c7ad5",
        "meta": {
          "profile": [
            "http://hl7.org/fhir/uv/ips/StructureDefinition/Condition-uv-ips"
          ]
        },
        "category": [
          {
            "coding": [
              {
                "code": "problem-list-item",
                "system": "http://terminology.hl7.org/CodeSystem/condition-category",
                "display": "Problem List Item"
              }
            ]
          }
        ],
        "code": {
          "coding": [
            {
              "code": "444814009",
              "system": "http://snomed.info/sct",
              "display": "Viral sinusitis (disorder)"
            }
          ],
          "text": "Viral sinusitis"
        },
        "text": {
          "status": "generated",
          "div": "<div xmlns=\"http://www.w3.org/1999/xhtml\"><table class=\"hl7__ips\"><tr><td><span class=\"grayedout\">Viral sinusitis</span></td><td><span class=\"nb\">15-Mar-2019 - 05-Apr-2019</span></td><td><span class=\"grayedout\">inactive</span></td></tr></table></div>"
        },
        "onsetDateTime": "2019-03-15",
        "abatementDateTime": "2019-04-05",
        "subject": {
          "reference": "urn:uuid:c8c51609-d393-40ac-8f78-22c9acd2525f",
          "display": "Mary Campbell"
        },
        "asserter": {
          "reference": "urn:uuid:7c424b83-27c3-4777-8c47-d1dd61618914",
          "display": "Cornbrook Medical Practice"
        }
      }
    },
    {
      "fullUrl": "urn:uuid:081b16bc-29df-49b1-9010-d07da4b157ad",
      "resource": {
        "resourceType": "Condition",
        "id": "081b16bc-29df-49b1-9010-d07da4b157ad",
        "meta": {
          "profile": [
            "http://hl7.org/fhir/uv/ips/StructureDefinition/Condition-uv-ips"
          ]
        },
        "category": [
          {
            "coding": [
              {
                "code": "problem-list-item",
                "system": "http://terminology.hl7.org/CodeSystem/condition-category",
                "display": "Problem List Item"
              }
            ]
          }
        ],
        "code": {
          "coding": [
            {
              "code": "195662009",
              "system": "http://snomed.info/sct",
              "display": "Acute viral pharyngitis (disorder)"
            }
          ],
          "text": "Acute viral pharyngitis"
        },
        "text": {
          "status": "generated",
          "div": "<div xmlns=\"http://www.w3.org/1999/xhtml\"><table class=\"hl7__ips\"><tr><td><span class=\"grayedout\">Acute viral pharyngitis</span></td><td><span class=\"nb\">22-Jan-2017 - 30-Jan-2017</span></td><td><span class=\"grayedout\">inactive</span></td></tr></table></div>"
        },
        "onsetDateTime": "2017-01-22",
        "abatementDateTime": "2017-01-30",
        "subject": {
          "reference": "urn:uuid:c8c51609-d393-40ac-8f78-22c9acd2525f",
          "display": "Mary Campbell"
        },
        "asserter": {
          "reference": "urn:uuid:7c424b83-27c3-4777-8c47-d1dd61618914",
          "display": "Cornbrook Medical Practice"
        }
      }
    },
    {
      "fullUrl": "urn:uuid:4b46fd57-23d8-4d5f-90ec-e8a02a05ce59",
      "resource": {
        "resourceType": "MedicationStatement",
        "id": "4b46fd57-23d8-4d5f-90ec-e8a02a05ce59",
        "meta": {
          "profile": [
            "http://hl7.eu/fhir/eps/StructureDefinition/MedicationStatement-eu-eps"
          ]
        },
        "effectivePeriod": {
          "extension": [
            {
              "url": "http://hl7.org/fhir/StructureDefinition/data-absent-reason",
              "valueCode": "unknown"
            }
          ]
        },
        "status": "active",
        "medicationCodeableConcept": {
          "coding": [
            {
              "code": "787481004",
              "system": "http://snomed.info/sct",
              "display": "No known medications (situation)"
            }
          ]
        },
        "subject": {
          "reference": "urn:uuid:c8c51609-d393-40ac-8f78-22c9acd2525f",
          "display": "Mary Campbell"
        }
      }
    },
    {
      "fullUrl": "urn:uuid:c9615a70-093b-48fd-8d30-d9a1c916dfac",
      "resource": {
        "resourceType": "Immunization",
        "id": "c9615a70-093b-48fd-8d30-d9a1c916dfac",
        "meta": {
          "profile": [
            "http://hl7.org/fhir/uv/ips/StructureDefinition/Immunization-uv-ips"
          ]
        },
        "vaccineCode": {
          "coding": [
            {
              "code": "1181000221105",
              "system": "http://snomed.info/sct",
              "display": "Vaccine product containing Influenza virus antigen"
            },
            {
              "code": "J07BB02",
              "system": "http://www.whocc.no/atc",
              "display": "Influenza, inactivated, split virus"
            }
          ],
          "text": "Influenza virus antigen only vaccine product"
        },
        "site": {
          "coding": [
            {
              "code": "244979005",
              "system": "http://snomed.info/sct",
              "display": "Entire muscle of upper arm"
            }
          ],
          "text": "Entire muscle of upper arm"
        },
        "route": {
          "coding": [
            {
              "code": "78421000",
              "system": "http://snomed.info/sct",
              "display": "Intramuscular route"
            }
          ],
          "text": "Intramuscular route"
        },
        "text": {
          "status": "generated",
          "div": "<div xmlns=\"http://www.w3.org/1999/xhtml\"><table class=\"hl7__ips\"><tr><td>Influenza virus antigen only vaccine product</td><td><span class=\"nb\">17-Apr-2025</span></td></tr></table></div>"
        },
        "status": "completed",
        "patient": {
          "reference": "urn:uuid:c8c51609-d393-40ac-8f78-22c9acd2525f",
          "display": "Mary Campbell"
        },
        "occurrenceDateTime": "2025-04-17",
        "lotNumber": "KL-3Wb8sSTj",
        "expirationDate": "2025-07-04"
      }
    },
    {
      "fullUrl": "urn:uuid:c0062e83-86c3-4c8a-9635-cae792fdafaa",
      "resource": {
        "resourceType": "Immunization",
        "id": "c0062e83-86c3-4c8a-9635-cae792fdafaa",
        "meta": {
          "profile": [
            "http://hl7.org/fhir/uv/ips/StructureDefinition/Immunization-uv-ips"
          ]
        },
        "vaccineCode": {
          "coding": [
            {
              "code": "871751006",
              "system": "http://snomed.info/sct",
              "display": "Vaccine product containing Hepatitis A virus antigen"
            },
            {
              "code": "J07BC02",
              "system": "http://www.whocc.no/atc",
              "display": "Hepatitis A vaccines"
            }
          ],
          "text": "Hepatitis A virus antigen only vaccine product"
        },
        "site": {
          "coding": [
            {
              "code": "244979005",
              "system": "http://snomed.info/sct",
              "display": "Entire muscle of upper arm"
            }
          ],
          "text": "Entire muscle of upper arm"
        },
        "route": {
          "coding": [
            {
              "code": "78421000",
              "system": "http://snomed.info/sct",
              "display": "Intramuscular route"
            }
          ],
          "text": "Intramuscular route"
        },
        "text": {
          "status": "generated",
          "div": "<div xmlns=\"http://www.w3.org/1999/xhtml\"><table class=\"hl7__ips\"><tr><td>Hepatitis A virus antigen only vaccine product</td><td><span class=\"nb\">11-Apr-2024</span></td></tr></table></div>"
        },
        "status": "completed",
        "patient": {
          "reference": "urn:uuid:c8c51609-d393-40ac-8f78-22c9acd2525f",
          "display": "Mary Campbell"
        },
        "occurrenceDateTime": "2024-04-11",
        "lotNumber": "CX-Q0xp9MNs2",
        "expirationDate": "2024-10-06"
      }
    },
    {
      "fullUrl": "urn:uuid:fcd0b973-93f4-401a-8447-a8fc0b36f61d",
      "resource": {
        "resourceType": "Immunization",
        "id": "fcd0b973-93f4-401a-8447-a8fc0b36f61d",
        "meta": {
          "profile": [
            "http://hl7.org/fhir/uv/ips/StructureDefinition/Immunization-uv-ips"
          ]
        },
        "vaccineCode": {
          "coding": [
            {
              "code": "777725002",
              "system": "http://snomed.info/sct",
              "display": "Vaccine product containing only Clostridium tetani toxoid antigen adsorbed"
            },
            {
              "code": "J07AM51",
              "system": "http://www.whocc.no/atc",
              "display": "Diphtheria-tetanus vaccines, adult type"
            }
          ],
          "text": "Clostridium tetani toxoid antigen adsorbed only vaccine product"
        },
        "site": {
          "coding": [
            {
              "code": "244979005",
              "system": "http://snomed.info/sct",
              "display": "Entire muscle of upper arm"
            }
          ],
          "text": "Entire muscle of upper arm"
        },
        "route": {
          "coding": [
            {
              "code": "78421000",
              "system": "http://snomed.info/sct",
              "display": "Intramuscular route"
            }
          ],
          "text": "Intramuscular route"
        },
        "text": {
          "status": "generated",
          "div": "<div xmlns=\"http://www.w3.org/1999/xhtml\"><table class=\"hl7__ips\"><tr><td>Clostridium tetani toxoid antigen adsorbed only vaccine product</td><td><span class=\"nb\">11-Apr-2024</span></td></tr></table></div>"
        },
        "status": "completed",
        "patient": {
          "reference": "urn:uuid:c8c51609-d393-40ac-8f78-22c9acd2525f",
          "display": "Mary Campbell"
        },
        "occurrenceDateTime": "2024-04-11",
        "lotNumber": "LN-8pnYM2lpm",
        "expirationDate": "2024-07-14"
      }
    },
    {
      "fullUrl": "urn:uuid:6a59c1ef-ad29-4ac1-be3e-19d2b25bc75a",
      "resource": {
        "resourceType": "Immunization",
        "id": "6a59c1ef-ad29-4ac1-be3e-19d2b25bc75a",
        "meta": {
          "profile": [
            "http://hl7.org/fhir/uv/ips/StructureDefinition/Immunization-uv-ips"
          ]
        },
        "vaccineCode": {
          "coding": [
            {
              "code": "1119349007",
              "system": "http://snomed.info/sct",
              "display": "Vaccine product containing SARS-CoV-2 mRNA"
            },
            {
              "code": "J07BX03",
              "system": "http://www.whocc.no/atc",
              "display": "COVID-19 mRNA vaccines"
            }
          ],
          "text": "SARS-CoV-2 mRNA vaccine"
        },
        "site": {
          "coding": [
            {
              "code": "244979005",
              "system": "http://snomed.info/sct",
              "display": "Entire muscle of upper arm"
            }
          ],
          "text": "Entire muscle of upper arm"
        },
        "route": {
          "coding": [
            {
              "code": "78421000",
              "system": "http://snomed.info/sct",
              "display": "Intramuscular route"
            }
          ],
          "text": "Intramuscular route"
        },
        "text": {
          "status": "generated",
          "div": "<div xmlns=\"http://www.w3.org/1999/xhtml\"><table class=\"hl7__ips\"><tr><td>SARS-CoV-2 mRNA vaccine</td><td><span class=\"nb\">18-Mar-2021</span></td></tr></table></div>"
        },
        "status": "completed",
        "patient": {
          "reference": "urn:uuid:c8c51609-d393-40ac-8f78-22c9acd2525f",
          "display": "Mary Campbell"
        },
        "occurrenceDateTime": "2021-03-18",
        "lotNumber": "KW-rEtR",
        "expirationDate": "2022-01-23"
      }
    },
    {
      "fullUrl": "urn:uuid:fa13fcf4-39e1-4475-ae72-a7f5f15f2f15",
      "resource": {
        "resourceType": "Procedure",
        "id": "fa13fcf4-39e1-4475-ae72-a7f5f15f2f15",
        "meta": {
          "profile": [
            "http://hl7.org/fhir/uv/ips/StructureDefinition/Procedure-uv-ips"
          ]
        },
        "code": {
          "coding": [
            {
              "code": "288086009",
              "system": "http://snomed.info/sct",
              "display": "Suture open wound"
            }
          ],
          "text": "Suture open wound"
        },
        "reasonCode": [
          {
            "coding": [
              {
                "code": "283385000",
                "system": "http://snomed.info/sct",
                "display": "Laceration of thigh"
              }
            ]
          }
        ],
        "text": {
          "status": "generated",
          "div": "<div xmlns=\"http://www.w3.org/1999/xhtml\"><table class=\"hl7__ips\"><tr><td>Suture open wound</td><td><span class=\"nb\">22-Mar-2024</span></td><td>Laceration of thigh</td></tr></table></div>"
        },
        "status": "completed",
        "performedDateTime": "2024-03-22",
        "subject": {
          "reference": "urn:uuid:c8c51609-d393-40ac-8f78-22c9acd2525f",
          "display": "Mary Campbell"
        }
      }
    },
    {
      "fullUrl": "urn:uuid:bbbd7831-13e0-43a3-a5cb-8bb8cca5b8d7",
      "resource": {
        "resourceType": "Procedure",
        "id": "bbbd7831-13e0-43a3-a5cb-8bb8cca5b8d7",
        "meta": {
          "profile": [
            "http://hl7.org/fhir/uv/ips/StructureDefinition/Procedure-uv-ips"
          ]
        },
        "code": {
          "coding": [
            {
              "code": "171207006",
              "system": "http://snomed.info/sct",
              "display": "Depression screening (procedure)"
            }
          ],
          "text": "Depression screening"
        },
        "text": {
          "status": "generated",
          "div": "<div xmlns=\"http://www.w3.org/1999/xhtml\"><table class=\"hl7__ips\"><tr><td>Depression screening</td><td><span class=\"nb\">12-May-2022</span></td><td>-</td></tr></table></div>"
        },
        "status": "completed",
        "performedDateTime": "2022-05-12",
        "subject": {
          "reference": "urn:uuid:c8c51609-d393-40ac-8f78-22c9acd2525f",
          "display": "Mary Campbell"
        }
      }
    },
    {
      "fullUrl": "urn:uuid:e9a91951-3231-42f6-91cb-8a39a9eee6d2",
      "resource": {
        "resourceType": "Procedure",
        "id": "e9a91951-3231-42f6-91cb-8a39a9eee6d2",
        "meta": {
          "profile": [
            "http://hl7.org/fhir/uv/ips/StructureDefinition/Procedure-uv-ips"
          ]
        },
        "code": {
          "coding": [
            {
              "code": "430193006",
              "system": "http://snomed.info/sct",
              "display": "Medication Reconciliation (procedure)"
            }
          ],
          "text": "Medication reconciliation"
        },
        "text": {
          "status": "generated",
          "div": "<div xmlns=\"http://www.w3.org/1999/xhtml\"><table class=\"hl7__ips\"><tr><td>Medication reconciliation</td><td><span class=\"nb\">12-May-2022</span></td><td>-</td></tr></table></div>"
        },
        "status": "completed",
        "performedDateTime": "2022-05-12",
        "subject": {
          "reference": "urn:uuid:c8c51609-d393-40ac-8f78-22c9acd2525f",
          "display": "Mary Campbell"
        }
      }
    },
    {
      "fullUrl": "urn:uuid:ce8dd088-8b47-4825-b173-42b0dd63f749",
      "resource": {
        "resourceType": "Procedure",
        "id": "ce8dd088-8b47-4825-b173-42b0dd63f749",
        "meta": {
          "profile": [
            "http://hl7.org/fhir/uv/ips/StructureDefinition/Procedure-uv-ips"
          ]
        },
        "code": {
          "coding": [
            {
              "code": "710824005",
              "system": "http://snomed.info/sct",
              "display": "Assessment of health and social care needs (procedure)"
            }
          ],
          "text": "Assessment of health and social care needs"
        },
        "text": {
          "status": "generated",
          "div": "<div xmlns=\"http://www.w3.org/1999/xhtml\"><table class=\"hl7__ips\"><tr><td>Assessment of health and social care needs</td><td><span class=\"nb\">12-May-2022</span></td><td>-</td></tr></table></div>"
        },
        "status": "completed",
        "performedDateTime": "2022-05-12",
        "subject": {
          "reference": "urn:uuid:c8c51609-d393-40ac-8f78-22c9acd2525f",
          "display": "Mary Campbell"
        }
      }
    },
    {
      "fullUrl": "urn:uuid:fea7875a-32f8-46b2-b7d3-9ec5bd708195",
      "resource": {
        "resourceType": "Procedure",
        "id": "fea7875a-32f8-46b2-b7d3-9ec5bd708195",
        "meta": {
          "profile": [
            "http://hl7.org/fhir/uv/ips/StructureDefinition/Procedure-uv-ips"
          ]
        },
        "code": {
          "coding": [
            {
              "code": "713106006",
              "system": "http://snomed.info/sct",
              "display": "Screening for drug abuse (procedure)"
            }
          ],
          "text": "Screening for drug abuse"
        },
        "text": {
          "status": "generated",
          "div": "<div xmlns=\"http://www.w3.org/1999/xhtml\"><table class=\"hl7__ips\"><tr><td>Screening for drug abuse</td><td><span class=\"nb\">12-May-2022</span></td><td>-</td></tr></table></div>"
        },
        "status": "completed",
        "performedDateTime": "2022-05-12",
        "subject": {
          "reference": "urn:uuid:c8c51609-d393-40ac-8f78-22c9acd2525f",
          "display": "Mary Campbell"
        }
      }
    },
    {
      "fullUrl": "urn:uuid:38c77c62-78bb-40a2-9268-23a9138826c5",
      "resource": {
        "resourceType": "Procedure",
        "id": "38c77c62-78bb-40a2-9268-23a9138826c5",
        "meta": {
          "profile": [
            "http://hl7.org/fhir/uv/ips/StructureDefinition/Procedure-uv-ips"
          ]
        },
        "code": {
          "coding": [
            {
              "code": "866148006",
              "system": "http://snomed.info/sct",
              "display": "Screening for domestic abuse (procedure)"
            }
          ],
          "text": "Screening for domestic abuse"
        },
        "text": {
          "status": "generated",
          "div": "<div xmlns=\"http://www.w3.org/1999/xhtml\"><table class=\"hl7__ips\"><tr><td>Screening for domestic abuse</td><td><span class=\"nb\">12-May-2022</span></td><td>-</td></tr></table></div>"
        },
        "status": "completed",
        "performedDateTime": "2022-05-12",
        "subject": {
          "reference": "urn:uuid:c8c51609-d393-40ac-8f78-22c9acd2525f",
          "display": "Mary Campbell"
        }
      }
    },
    {
      "fullUrl": "urn:uuid:590c763f-da95-47a2-8c4b-0b4fa075e249",
      "resource": {
        "resourceType": "Procedure",
        "id": "590c763f-da95-47a2-8c4b-0b4fa075e249",
        "meta": {
          "profile": [
            "http://hl7.org/fhir/uv/ips/StructureDefinition/Procedure-uv-ips"
          ]
        },
        "code": {
          "coding": [
            {
              "code": "428211000124100",
              "system": "http://snomed.info/sct",
              "display": "Assessment of substance use (procedure)"
            }
          ],
          "text": "Assessment of substance use"
        },
        "text": {
          "status": "generated",
          "div": "<div xmlns=\"http://www.w3.org/1999/xhtml\"><table class=\"hl7__ips\"><tr><td>Assessment of substance use</td><td><span class=\"nb\">12-May-2022</span></td><td>-</td></tr></table></div>"
        },
        "status": "completed",
        "performedDateTime": "2022-05-12",
        "subject": {
          "reference": "urn:uuid:c8c51609-d393-40ac-8f78-22c9acd2525f",
          "display": "Mary Campbell"
        }
      }
    },
    {
      "fullUrl": "urn:uuid:871a1676-1272-496b-b358-87c79bcc0dd8",
      "resource": {
        "resourceType": "Procedure",
        "id": "871a1676-1272-496b-b358-87c79bcc0dd8",
        "meta": {
          "profile": [
            "http://hl7.org/fhir/uv/ips/StructureDefinition/Procedure-uv-ips"
          ]
        },
        "code": {
          "coding": [
            {
              "code": "454711000124102",
              "system": "http://snomed.info/sct",
              "display": "Depression screening using Patient Health Questionnaire Two-Item score (procedure)"
            }
          ]
        },
        "text": {
          "status": "generated",
          "div": "<div xmlns=\"http://www.w3.org/1999/xhtml\"><table class=\"hl7__ips\"><tr><td>Depression screening using Patient Health Questionnaire Two-Item score (procedure)</td><td><span class=\"nb\">12-May-2022</span></td><td>-</td></tr></table></div>"
        },
        "status": "completed",
        "performedDateTime": "2022-05-12",
        "subject": {
          "reference": "urn:uuid:c8c51609-d393-40ac-8f78-22c9acd2525f",
          "display": "Mary Campbell"
        }
      }
    },
    {
      "fullUrl": "urn:uuid:a264386c-b750-42ac-9077-914ceface372",
      "resource": {
        "resourceType": "Procedure",
        "id": "a264386c-b750-42ac-9077-914ceface372",
        "meta": {
          "profile": [
            "http://hl7.org/fhir/uv/ips/StructureDefinition/Procedure-uv-ips"
          ]
        },
        "code": {
          "coding": [
            {
              "code": "133899007",
              "system": "http://snomed.info/sct",
              "display": "Postoperative care (regime/therapy)"
            }
          ],
          "text": "Postoperative care"
        },
        "reasonCode": [
          {
            "coding": [
              {
                "code": "267020005",
                "system": "http://snomed.info/sct",
                "display": "History of tubal ligation (situation)"
              }
            ]
          }
        ],
        "text": {
          "status": "generated",
          "div": "<div xmlns=\"http://www.w3.org/1999/xhtml\"><table class=\"hl7__ips\"><tr><td>Postoperative care</td><td><span class=\"nb\">06-Dec-2018</span></td><td>History of tubal ligation (situation)</td></tr></table></div>"
        },
        "status": "completed",
        "performedDateTime": "2018-12-06",
        "subject": {
          "reference": "urn:uuid:c8c51609-d393-40ac-8f78-22c9acd2525f",
          "display": "Mary Campbell"
        }
      }
    },
    {
      "fullUrl": "urn:uuid:b1e9f635-669a-401a-b0b5-bfe79b8b6793",
      "resource": {
        "resourceType": "Procedure",
        "id": "b1e9f635-669a-401a-b0b5-bfe79b8b6793",
        "meta": {
          "profile": [
            "http://hl7.org/fhir/uv/ips/StructureDefinition/Procedure-uv-ips"
          ]
        },
        "code": {
          "coding": [
            {
              "code": "287664005",
              "system": "http://snomed.info/sct",
              "display": "Bilateral tubal ligation"
            }
          ],
          "text": "Ligation of bilateral fallopian tubes"
        },
        "reasonCode": [
          {
            "coding": [
              {
                "code": "183996000",
                "system": "http://snomed.info/sct",
                "display": "Sterilization requested (situation)"
              }
            ]
          }
        ],
        "text": {
          "status": "generated",
          "div": "<div xmlns=\"http://www.w3.org/1999/xhtml\"><table class=\"hl7__ips\"><tr><td>Ligation of bilateral fallopian tubes</td><td><span class=\"nb\">05-Dec-2018</span></td><td>Sterilization requested (situation)</td></tr></table></div>"
        },
        "status": "completed",
        "performedDateTime": "2018-12-05",
        "subject": {
          "reference": "urn:uuid:c8c51609-d393-40ac-8f78-22c9acd2525f",
          "display": "Mary Campbell"
        }
      }
    },
    {
      "fullUrl": "urn:uuid:4deafcb6-dbfa-4f91-9d6a-a172800817f0",
      "resource": {
        "resourceType": "AllergyIntolerance",
        "id": "4deafcb6-dbfa-4f91-9d6a-a172800817f0",
        "meta": {
          "profile": [
            "http://hl7.eu/fhir/base/StructureDefinition/allergyIntolerance-eu-core"
          ]
        },
        "code": {
          "text": ""
        },
        "clinicalStatus": {
          "coding": [
            {
              "code": "active",
              "system": "http://terminology.hl7.org/CodeSystem/allergyintolerance-clinical"
            }
          ]
        },
        "text": {
          "status": "generated",
          "div": "<div xmlns=\"http://www.w3.org/1999/xhtml\"><table class=\"hl7__ips\"><tr><th>Allergy/Intolerance</th><th>Onset Date</th><th>Status</th><th>Type</th><th>Reaction</th></tr><tr><td></td><td>?</td><td>active</td><td>?</td><td></td></tr></table></div>"
        },
        "verificationStatus": {
          "coding": [
            {
              "code": "confirmed",
              "system": "http://terminology.hl7.org/CodeSystem/allergyintolerance-verification"
            }
          ]
        },
        "patient": {
          "reference": "urn:uuid:c8c51609-d393-40ac-8f78-22c9acd2525f",
          "display": "Mary Campbell"
        },
        "_onsetDateTime": {
          "extension": [
            {
              "url": "http://hl7.org/fhir/StructureDefinition/data-absent-reason",
              "valueCode": "unknown"
            }
          ]
        }
      }
    },
    {
      "fullUrl": "urn:uuid:4b7bc21d-6810-4045-8342-fc10ef6d8c51",
      "resource": {
        "resourceType": "CarePlan",
        "id": "4b7bc21d-6810-4045-8342-fc10ef6d8c51",
        "category": [
          {
            "coding": [
              {
                "code": "assess-plan",
                "system": "http://terminology.hl7.org/CodeSystem/care-plan-category",
                "display": "Assessment and Plan"
              }
            ]
          }
        ],
        "activity": [
          {
            "detail": {
              "code": {
                "coding": [
                  {
                    "code": "408869004",
                    "system": "http://snomed.info/sct",
                    "display": "Musculoskeletal care (regime/therapy)"
                  }
                ]
              },
              "reasonCode": [
                {
                  "coding": [
                    {
                      "code": "239873007",
                      "system": "http://snomed.info/sct",
                      "display": "Osteoarthritis of knee"
                    }
                  ]
                }
              ],
              "status": "unknown",
              "description": "Musculoskeletal care",
              "kind": "Appointment"
            }
          }
        ],
        "period": {
          "start": "2018-10-25"
        },
        "goal": [
          {
            "reference": "urn:uuid:bd24fba3-1359-4a05-9a64-f2868269a9e5"
          },
          {
            "reference": "urn:uuid:a4361828-2979-42b7-bbee-8dd484d70079"
          },
          {
            "reference": "urn:uuid:a3e6944a-081e-44ef-98a5-8af2d6f37b94"
          }
        ],
        "text": {
          "status": "generated",
          "div": "<div xmlns=\"http://www.w3.org/1999/xhtml\"><table class=\"hl7__ips first25\"><tr><th>Active Planned Care / Goals</th><th>Start Date</th><th>Reason</th></tr><tr><td>Musculoskeletal care</td><td><span class=\"nb\">25-Oct-2018</span></td><td>Osteoarthritis of knee</td></tr><tr><td><ul><li>Reduce knee pain severity to mild or less</li><li>Increase ability to walk without significant limitation</li><li>Engage in moderate physical activity at least 150 minutes per week</li></ul></td><td></td><td></td></tr></table></div>"
        },
        "status": "active",
        "intent": "plan",
        "subject": {
          "reference": "urn:uuid:c8c51609-d393-40ac-8f78-22c9acd2525f",
          "display": "Mary Campbell"
        }
      }
    },
    {
      "fullUrl": "urn:uuid:68f524fc-3ab3-4ce7-aad7-4998f2aea175",
      "resource": {
        "resourceType": "Observation",
        "id": "68f524fc-3ab3-4ce7-aad7-4998f2aea175",
        "meta": {
          "profile": [
            "http://hl7.org/fhir/StructureDefinition/vitalsigns"
          ]
        },
        "category": [
          {
            "coding": [
              {
                "system": "http://terminology.hl7.org/CodeSystem/observation-category",
                "code": "vital-signs",
                "display": "Vital Signs"
              }
            ]
          }
        ],
        "valueQuantity": {
          "value": 172.4,
          "code": "cm",
          "unit": "cm"
        },
        "text": {
          "status": "generated",
          "div": "<div xmlns=\"http://www.w3.org/1999/xhtml\"><table class=\"hl7__ips\"><tr><th>Vital Sign</th><th>Date</th><th>Measurement</th></tr><tr><td>Body Height</td><td>17-Apr-2025</td><td>172.4 cm</td></tr></table></div>"
        },
        "status": "final",
        "code": {
          "coding": [
            {
              "code": "8302-2",
              "system": "http://loinc.org",
              "display": "Body Height"
            }
          ]
        },
        "subject": {
          "reference": "urn:uuid:c8c51609-d393-40ac-8f78-22c9acd2525f",
          "display": "Mary Campbell"
        },
        "effectiveDateTime": "2025-04-17"
      }
    },
    {
      "fullUrl": "urn:uuid:f4170475-6f42-49aa-90ed-8c0472bec050",
      "resource": {
        "resourceType": "Observation",
        "id": "f4170475-6f42-49aa-90ed-8c0472bec050",
        "meta": {
          "profile": [
            "http://hl7.org/fhir/StructureDefinition/vitalsigns"
          ]
        },
        "category": [
          {
            "coding": [
              {
                "system": "http://terminology.hl7.org/CodeSystem/observation-category",
                "code": "vital-signs",
                "display": "Vital Signs"
              }
            ]
          }
        ],
        "valueQuantity": {
          "value": 0,
          "code": "{score}",
          "unit": "{score}"
        },
        "text": {
          "status": "generated",
          "div": "<div xmlns=\"http://www.w3.org/1999/xhtml\"><table class=\"hl7__ips\"><tr><th>Vital Sign</th><th>Date</th><th>Measurement</th></tr><tr><td>Pain severity - 0-10 verbal numeric rating [Score] - Reported</td><td>17-Apr-2025</td><td>0 {score}</td></tr></table></div>"
        },
        "status": "final",
        "code": {
          "coding": [
            {
              "code": "72514-3",
              "system": "http://loinc.org",
              "display": "Pain severity - 0-10 verbal numeric rating [Score] - Reported"
            }
          ]
        },
        "subject": {
          "reference": "urn:uuid:c8c51609-d393-40ac-8f78-22c9acd2525f",
          "display": "Mary Campbell"
        },
        "effectiveDateTime": "2025-04-17"
      }
    },
    {
      "fullUrl": "urn:uuid:7f915834-02a3-402e-8bac-c3ae1085e280",
      "resource": {
        "resourceType": "Observation",
        "id": "7f915834-02a3-402e-8bac-c3ae1085e280",
        "meta": {
          "profile": [
            "http://hl7.org/fhir/StructureDefinition/vitalsigns"
          ]
        },
        "category": [
          {
            "coding": [
              {
                "system": "http://terminology.hl7.org/CodeSystem/observation-category",
                "code": "vital-signs",
                "display": "Vital Signs"
              }
            ]
          }
        ],
        "valueQuantity": {
          "value": 89.6,
          "code": "kg",
          "unit": "kg"
        },
        "text": {
          "status": "generated",
          "div": "<div xmlns=\"http://www.w3.org/1999/xhtml\"><table class=\"hl7__ips\"><tr><th>Vital Sign</th><th>Date</th><th>Measurement</th></tr><tr><td>Body Weight</td><td>17-Apr-2025</td><td>89.6 kg</td></tr></table></div>"
        },
        "status": "final",
        "code": {
          "coding": [
            {
              "code": "29463-7",
              "system": "http://loinc.org",
              "display": "Body Weight"
            }
          ]
        },
        "subject": {
          "reference": "urn:uuid:c8c51609-d393-40ac-8f78-22c9acd2525f",
          "display": "Mary Campbell"
        },
        "effectiveDateTime": "2025-04-17"
      }
    },
    {
      "fullUrl": "urn:uuid:ffaa5793-0ade-4de0-8924-23a62f4155cd",
      "resource": {
        "resourceType": "Observation",
        "id": "ffaa5793-0ade-4de0-8924-23a62f4155cd",
        "meta": {
          "profile": [
            "http://hl7.org/fhir/StructureDefinition/vitalsigns"
          ]
        },
        "category": [
          {
            "coding": [
              {
                "system": "http://terminology.hl7.org/CodeSystem/observation-category",
                "code": "vital-signs",
                "display": "Vital Signs"
              }
            ]
          }
        ],
        "valueQuantity": {
          "value": 30.2,
          "code": "kg/m2",
          "unit": "kg/m2"
        },
        "text": {
          "status": "generated",
          "div": "<div xmlns=\"http://www.w3.org/1999/xhtml\"><table class=\"hl7__ips\"><tr><th>Vital Sign</th><th>Date</th><th>Measurement</th></tr><tr><td>Body mass index (BMI) [Ratio]</td><td>17-Apr-2025</td><td>30.2 kg/m2</td></tr></table></div>"
        },
        "status": "final",
        "code": {
          "coding": [
            {
              "code": "39156-5",
              "system": "http://loinc.org",
              "display": "Body mass index (BMI) [Ratio]"
            }
          ]
        },
        "subject": {
          "reference": "urn:uuid:c8c51609-d393-40ac-8f78-22c9acd2525f",
          "display": "Mary Campbell"
        },
        "effectiveDateTime": "2025-04-17"
      }
    },
    {
      "fullUrl": "urn:uuid:15e6bcff-5497-4076-9938-9737b6d84628",
      "resource": {
        "resourceType": "Observation",
        "id": "15e6bcff-5497-4076-9938-9737b6d84628",
        "meta": {
          "profile": [
            "http://hl7.org/fhir/StructureDefinition/vitalsigns"
          ]
        },
        "category": [
          {
            "coding": [
              {
                "system": "http://terminology.hl7.org/CodeSystem/observation-category",
                "code": "vital-signs",
                "display": "Vital Signs"
              }
            ]
          }
        ],
        "valueQuantity": {
          "value": 80,
          "code": "mm[Hg]",
          "unit": "mm[Hg]"
        },
        "text": {
          "status": "generated",
          "div": "<div xmlns=\"http://www.w3.org/1999/xhtml\"><table class=\"hl7__ips\"><tr><th>Vital Sign</th><th>Date</th><th>Measurement</th></tr><tr><td>Diastolic Blood Pressure</td><td>17-Apr-2025</td><td>80 mm[Hg]</td></tr></table></div>"
        },
        "status": "final",
        "code": {
          "coding": [
            {
              "code": "8462-4",
              "system": "http://loinc.org",
              "display": "Diastolic Blood Pressure"
            }
          ]
        },
        "subject": {
          "reference": "urn:uuid:c8c51609-d393-40ac-8f78-22c9acd2525f",
          "display": "Mary Campbell"
        },
        "effectiveDateTime": "2025-04-17"
      }
    },
    {
      "fullUrl": "urn:uuid:89f317d1-ba0e-4374-a759-6f31abea089d",
      "resource": {
        "resourceType": "Observation",
        "id": "89f317d1-ba0e-4374-a759-6f31abea089d",
        "meta": {
          "profile": [
            "http://hl7.org/fhir/StructureDefinition/vitalsigns"
          ]
        },
        "category": [
          {
            "coding": [
              {
                "system": "http://terminology.hl7.org/CodeSystem/observation-category",
                "code": "vital-signs",
                "display": "Vital Signs"
              }
            ]
          }
        ],
        "valueQuantity": {
          "value": 117,
          "code": "mm[Hg]",
          "unit": "mm[Hg]"
        },
        "text": {
          "status": "generated",
          "div": "<div xmlns=\"http://www.w3.org/1999/xhtml\"><table class=\"hl7__ips\"><tr><th>Vital Sign</th><th>Date</th><th>Measurement</th></tr><tr><td>Systolic Blood Pressure</td><td>17-Apr-2025</td><td>117 mm[Hg]</td></tr></table></div>"
        },
        "status": "final",
        "code": {
          "coding": [
            {
              "code": "8480-6",
              "system": "http://loinc.org",
              "display": "Systolic Blood Pressure"
            }
          ]
        },
        "subject": {
          "reference": "urn:uuid:c8c51609-d393-40ac-8f78-22c9acd2525f",
          "display": "Mary Campbell"
        },
        "effectiveDateTime": "2025-04-17"
      }
    },
    {
      "fullUrl": "urn:uuid:3c664e72-2888-43be-a68f-0c24eca11adb",
      "resource": {
        "resourceType": "Observation",
        "id": "3c664e72-2888-43be-a68f-0c24eca11adb",
        "meta": {
          "profile": [
            "http://hl7.org/fhir/StructureDefinition/vitalsigns"
          ]
        },
        "category": [
          {
            "coding": [
              {
                "system": "http://terminology.hl7.org/CodeSystem/observation-category",
                "code": "vital-signs",
                "display": "Vital Signs"
              }
            ]
          }
        ],
        "valueQuantity": {
          "value": 85,
          "code": "/min",
          "unit": "/min"
        },
        "text": {
          "status": "generated",
          "div": "<div xmlns=\"http://www.w3.org/1999/xhtml\"><table class=\"hl7__ips\"><tr><th>Vital Sign</th><th>Date</th><th>Measurement</th></tr><tr><td>Heart rate</td><td>17-Apr-2025</td><td>85 /min</td></tr></table></div>"
        },
        "status": "final",
        "code": {
          "coding": [
            {
              "code": "8867-4",
              "system": "http://loinc.org",
              "display": "Heart rate"
            }
          ]
        },
        "subject": {
          "reference": "urn:uuid:c8c51609-d393-40ac-8f78-22c9acd2525f",
          "display": "Mary Campbell"
        },
        "effectiveDateTime": "2025-04-17"
      }
    },
    {
      "fullUrl": "urn:uuid:80585cba-7fb8-4d78-813b-8a86055ebf90",
      "resource": {
        "resourceType": "Observation",
        "id": "80585cba-7fb8-4d78-813b-8a86055ebf90",
        "meta": {
          "profile": [
            "http://hl7.org/fhir/StructureDefinition/vitalsigns"
          ]
        },
        "category": [
          {
            "coding": [
              {
                "system": "http://terminology.hl7.org/CodeSystem/observation-category",
                "code": "vital-signs",
                "display": "Vital Signs"
              }
            ]
          }
        ],
        "valueQuantity": {
          "value": 13,
          "code": "/min",
          "unit": "/min"
        },
        "text": {
          "status": "generated",
          "div": "<div xmlns=\"http://www.w3.org/1999/xhtml\"><table class=\"hl7__ips\"><tr><th>Vital Sign</th><th>Date</th><th>Measurement</th></tr><tr><td>Respiratory rate</td><td>17-Apr-2025</td><td>13 /min</td></tr></table></div>"
        },
        "status": "final",
        "code": {
          "coding": [
            {
              "code": "9279-1",
              "system": "http://loinc.org",
              "display": "Respiratory rate"
            }
          ]
        },
        "subject": {
          "reference": "urn:uuid:c8c51609-d393-40ac-8f78-22c9acd2525f",
          "display": "Mary Campbell"
        },
        "effectiveDateTime": "2025-04-17"
      }
    },
    {
      "fullUrl": "urn:uuid:6ff06b98-0c26-4f44-ab49-55583d59c606",
      "resource": {
        "resourceType": "Observation",
        "id": "6ff06b98-0c26-4f44-ab49-55583d59c606",
        "meta": {
          "profile": [
            "http://hl7.org/fhir/StructureDefinition/vitalsigns"
          ]
        },
        "category": [
          {
            "coding": [
              {
                "system": "http://terminology.hl7.org/CodeSystem/observation-category",
                "code": "vital-signs",
                "display": "Vital Signs"
              }
            ]
          }
        ],
        "valueQuantity": {
          "value": 172.4,
          "code": "cm",
          "unit": "cm"
        },
        "text": {
          "status": "generated",
          "div": "<div xmlns=\"http://www.w3.org/1999/xhtml\"><table class=\"hl7__ips\"><tr><th>Vital Sign</th><th>Date</th><th>Measurement</th></tr><tr><td>Body Height</td><td>11-Apr-2024</td><td>172.4 cm</td></tr></table></div>"
        },
        "status": "final",
        "code": {
          "coding": [
            {
              "code": "8302-2",
              "system": "http://loinc.org",
              "display": "Body Height"
            }
          ]
        },
        "subject": {
          "reference": "urn:uuid:c8c51609-d393-40ac-8f78-22c9acd2525f",
          "display": "Mary Campbell"
        },
        "effectiveDateTime": "2024-04-11"
      }
    },
    {
      "fullUrl": "urn:uuid:04ffed6d-5013-47f5-a3c5-4180d51aa906",
      "resource": {
        "resourceType": "Observation",
        "id": "04ffed6d-5013-47f5-a3c5-4180d51aa906",
        "meta": {
          "profile": [
            "http://hl7.org/fhir/StructureDefinition/vitalsigns"
          ]
        },
        "category": [
          {
            "coding": [
              {
                "system": "http://terminology.hl7.org/CodeSystem/observation-category",
                "code": "vital-signs",
                "display": "Vital Signs"
              }
            ]
          }
        ],
        "valueQuantity": {
          "value": 3,
          "code": "{score}",
          "unit": "{score}"
        },
        "text": {
          "status": "generated",
          "div": "<div xmlns=\"http://www.w3.org/1999/xhtml\"><table class=\"hl7__ips\"><tr><th>Vital Sign</th><th>Date</th><th>Measurement</th></tr><tr><td>Pain severity - 0-10 verbal numeric rating [Score] - Reported</td><td>11-Apr-2024</td><td>3 {score}</td></tr></table></div>"
        },
        "status": "final",
        "code": {
          "coding": [
            {
              "code": "72514-3",
              "system": "http://loinc.org",
              "display": "Pain severity - 0-10 verbal numeric rating [Score] - Reported"
            }
          ]
        },
        "subject": {
          "reference": "urn:uuid:c8c51609-d393-40ac-8f78-22c9acd2525f",
          "display": "Mary Campbell"
        },
        "effectiveDateTime": "2024-04-11"
      }
    },
    {
      "fullUrl": "urn:uuid:97c75ffd-19b5-4267-9ee7-be20a8ea8d93",
      "resource": {
        "resourceType": "Observation",
        "id": "97c75ffd-19b5-4267-9ee7-be20a8ea8d93",
        "meta": {
          "profile": [
            "http://hl7.org/fhir/StructureDefinition/vitalsigns"
          ]
        },
        "category": [
          {
            "coding": [
              {
                "system": "http://terminology.hl7.org/CodeSystem/observation-category",
                "code": "vital-signs",
                "display": "Vital Signs"
              }
            ]
          }
        ],
        "valueQuantity": {
          "value": 89.6,
          "code": "kg",
          "unit": "kg"
        },
        "text": {
          "status": "generated",
          "div": "<div xmlns=\"http://www.w3.org/1999/xhtml\"><table class=\"hl7__ips\"><tr><th>Vital Sign</th><th>Date</th><th>Measurement</th></tr><tr><td>Body Weight</td><td>11-Apr-2024</td><td>89.6 kg</td></tr></table></div>"
        },
        "status": "final",
        "code": {
          "coding": [
            {
              "code": "29463-7",
              "system": "http://loinc.org",
              "display": "Body Weight"
            }
          ]
        },
        "subject": {
          "reference": "urn:uuid:c8c51609-d393-40ac-8f78-22c9acd2525f",
          "display": "Mary Campbell"
        },
        "effectiveDateTime": "2024-04-11"
      }
    },
    {
      "fullUrl": "urn:uuid:93f4279a-1c2b-4d49-b360-40cc6bc7cb19",
      "resource": {
        "resourceType": "Observation",
        "id": "93f4279a-1c2b-4d49-b360-40cc6bc7cb19",
        "meta": {
          "profile": [
            "http://hl7.org/fhir/StructureDefinition/vitalsigns"
          ]
        },
        "category": [
          {
            "coding": [
              {
                "system": "http://terminology.hl7.org/CodeSystem/observation-category",
                "code": "vital-signs",
                "display": "Vital Signs"
              }
            ]
          }
        ],
        "valueQuantity": {
          "value": 30.2,
          "code": "kg/m2",
          "unit": "kg/m2"
        },
        "text": {
          "status": "generated",
          "div": "<div xmlns=\"http://www.w3.org/1999/xhtml\"><table class=\"hl7__ips\"><tr><th>Vital Sign</th><th>Date</th><th>Measurement</th></tr><tr><td>Body mass index (BMI) [Ratio]</td><td>11-Apr-2024</td><td>30.2 kg/m2</td></tr></table></div>"
        },
        "status": "final",
        "code": {
          "coding": [
            {
              "code": "39156-5",
              "system": "http://loinc.org",
              "display": "Body mass index (BMI) [Ratio]"
            }
          ]
        },
        "subject": {
          "reference": "urn:uuid:c8c51609-d393-40ac-8f78-22c9acd2525f",
          "display": "Mary Campbell"
        },
        "effectiveDateTime": "2024-04-11"
      }
    },
    {
      "fullUrl": "urn:uuid:8a3be165-9bcd-4ad8-b31a-7af958a62871",
      "resource": {
        "resourceType": "Observation",
        "id": "8a3be165-9bcd-4ad8-b31a-7af958a62871",
        "meta": {
          "profile": [
            "http://hl7.org/fhir/StructureDefinition/vitalsigns"
          ]
        },
        "category": [
          {
            "coding": [
              {
                "system": "http://terminology.hl7.org/CodeSystem/observation-category",
                "code": "vital-signs",
                "display": "Vital Signs"
              }
            ]
          }
        ],
        "valueQuantity": {
          "value": 85,
          "code": "mm[Hg]",
          "unit": "mm[Hg]"
        },
        "text": {
          "status": "generated",
          "div": "<div xmlns=\"http://www.w3.org/1999/xhtml\"><table class=\"hl7__ips\"><tr><th>Vital Sign</th><th>Date</th><th>Measurement</th></tr><tr><td>Diastolic Blood Pressure</td><td>11-Apr-2024</td><td>85 mm[Hg]</td></tr></table></div>"
        },
        "status": "final",
        "code": {
          "coding": [
            {
              "code": "8462-4",
              "system": "http://loinc.org",
              "display": "Diastolic Blood Pressure"
            }
          ]
        },
        "subject": {
          "reference": "urn:uuid:c8c51609-d393-40ac-8f78-22c9acd2525f",
          "display": "Mary Campbell"
        },
        "effectiveDateTime": "2024-04-11"
      }
    },
    {
      "fullUrl": "urn:uuid:e8a498a9-ccb7-4c2a-ac4d-9f1eaaa02f8b",
      "resource": {
        "resourceType": "Observation",
        "id": "e8a498a9-ccb7-4c2a-ac4d-9f1eaaa02f8b",
        "meta": {
          "profile": [
            "http://hl7.org/fhir/StructureDefinition/vitalsigns"
          ]
        },
        "category": [
          {
            "coding": [
              {
                "system": "http://terminology.hl7.org/CodeSystem/observation-category",
                "code": "vital-signs",
                "display": "Vital Signs"
              }
            ]
          }
        ],
        "valueQuantity": {
          "value": 118,
          "code": "mm[Hg]",
          "unit": "mm[Hg]"
        },
        "text": {
          "status": "generated",
          "div": "<div xmlns=\"http://www.w3.org/1999/xhtml\"><table class=\"hl7__ips\"><tr><th>Vital Sign</th><th>Date</th><th>Measurement</th></tr><tr><td>Systolic Blood Pressure</td><td>11-Apr-2024</td><td>118 mm[Hg]</td></tr></table></div>"
        },
        "status": "final",
        "code": {
          "coding": [
            {
              "code": "8480-6",
              "system": "http://loinc.org",
              "display": "Systolic Blood Pressure"
            }
          ]
        },
        "subject": {
          "reference": "urn:uuid:c8c51609-d393-40ac-8f78-22c9acd2525f",
          "display": "Mary Campbell"
        },
        "effectiveDateTime": "2024-04-11"
      }
    },
    {
      "fullUrl": "urn:uuid:b166d1f3-eb22-4ac9-8bfa-129d57b91ab9",
      "resource": {
        "resourceType": "Observation",
        "id": "b166d1f3-eb22-4ac9-8bfa-129d57b91ab9",
        "meta": {
          "profile": [
            "http://hl7.org/fhir/StructureDefinition/vitalsigns"
          ]
        },
        "category": [
          {
            "coding": [
              {
                "system": "http://terminology.hl7.org/CodeSystem/observation-category",
                "code": "vital-signs",
                "display": "Vital Signs"
              }
            ]
          }
        ],
        "valueQuantity": {
          "value": 70,
          "code": "/min",
          "unit": "/min"
        },
        "text": {
          "status": "generated",
          "div": "<div xmlns=\"http://www.w3.org/1999/xhtml\"><table class=\"hl7__ips\"><tr><th>Vital Sign</th><th>Date</th><th>Measurement</th></tr><tr><td>Heart rate</td><td>11-Apr-2024</td><td>70 /min</td></tr></table></div>"
        },
        "status": "final",
        "code": {
          "coding": [
            {
              "code": "8867-4",
              "system": "http://loinc.org",
              "display": "Heart rate"
            }
          ]
        },
        "subject": {
          "reference": "urn:uuid:c8c51609-d393-40ac-8f78-22c9acd2525f",
          "display": "Mary Campbell"
        },
        "effectiveDateTime": "2024-04-11"
      }
    },
    {
      "fullUrl": "urn:uuid:4c241662-487f-4f33-9973-f2cab440f81b",
      "resource": {
        "resourceType": "Observation",
        "id": "4c241662-487f-4f33-9973-f2cab440f81b",
        "meta": {
          "profile": [
            "http://hl7.org/fhir/StructureDefinition/vitalsigns"
          ]
        },
        "category": [
          {
            "coding": [
              {
                "system": "http://terminology.hl7.org/CodeSystem/observation-category",
                "code": "vital-signs",
                "display": "Vital Signs"
              }
            ]
          }
        ],
        "valueQuantity": {
          "value": 14,
          "code": "/min",
          "unit": "/min"
        },
        "text": {
          "status": "generated",
          "div": "<div xmlns=\"http://www.w3.org/1999/xhtml\"><table class=\"hl7__ips\"><tr><th>Vital Sign</th><th>Date</th><th>Measurement</th></tr><tr><td>Respiratory rate</td><td>11-Apr-2024</td><td>14 /min</td></tr></table></div>"
        },
        "status": "final",
        "code": {
          "coding": [
            {
              "code": "9279-1",
              "system": "http://loinc.org",
              "display": "Respiratory rate"
            }
          ]
        },
        "subject": {
          "reference": "urn:uuid:c8c51609-d393-40ac-8f78-22c9acd2525f",
          "display": "Mary Campbell"
        },
        "effectiveDateTime": "2024-04-11"
      }
    },
    {
      "fullUrl": "urn:uuid:1bd96f1b-d39c-4ff2-ae4f-79c64b3b4c2e",
      "resource": {
        "resourceType": "Observation",
        "id": "1bd96f1b-d39c-4ff2-ae4f-79c64b3b4c2e",
        "meta": {
          "profile": [
            "http://hl7.eu/fhir/laboratory/StructureDefinition/Observation-resultslab-eu-lab"
          ]
        },
        "performer": [
          {
            "display": "The Central European Lab"
          }
        ],
        "category": [
          {
            "coding": [
              {
                "system": "http://terminology.hl7.org/CodeSystem/observation-category",
                "code": "laboratory"
              }
            ]
          }
        ],
        "code": {
          "coding": [
            {
              "code": "2093-3",
              "system": "http://loinc.org",
              "display": "Cholesterol [Mass/volume] in Serum or Plasma"
            }
          ],
          "text": "Cholesterol [Mass/volume] in Serum or Plasma"
        },
        "valueQuantity": {
          "system": "http://unitsofmeasure.org",
          "value": 170.4,
          "unit": "mg/dL",
          "code": "mg/dL"
        },
        "referenceRange": [
          {
            "low": {
              "value": 130,
              "code": "mg/dL",
              "system": "http://unitsofmeasure.org"
            }
          },
          {
            "high": {
              "value": 200,
              "code": "mg/dL",
              "system": "http://unitsofmeasure.org"
            }
          }
        ],
        "text": {
          "status": "generated",
          "div": "<div xmlns=\"http://www.w3.org/1999/xhtml\"><table class=\"hl7__eu__lab__report\"><tr><th>Test</th><th>06-Apr-2023</th><th>Reference&#xA0;Range</th><th>Unit</th></tr><tr><td>Cholesterol [Mass/volume] in Serum or Plasma</td><td>170.4</td><td>130 - 200</td><td></td><td>mg/dL</td></tr></table></div>"
        },
        "status": "final",
        "subject": {
          "reference": "urn:uuid:c8c51609-d393-40ac-8f78-22c9acd2525f",
          "display": "Mary Campbell"
        },
        "effectiveDateTime": "2023-04-06T01:39:45Z"
      }
    },
    {
      "fullUrl": "urn:uuid:f94626d1-b12f-4d4f-87ee-d7068e972b51",
      "resource": {
        "resourceType": "Observation",
        "id": "f94626d1-b12f-4d4f-87ee-d7068e972b51",
        "meta": {
          "profile": [
            "http://hl7.eu/fhir/laboratory/StructureDefinition/Observation-resultslab-eu-lab"
          ]
        },
        "performer": [
          {
            "display": "The Central European Lab"
          }
        ],
        "category": [
          {
            "coding": [
              {
                "system": "http://terminology.hl7.org/CodeSystem/observation-category",
                "code": "laboratory"
              }
            ]
          }
        ],
        "code": {
          "coding": [
            {
              "code": "2571-8",
              "system": "http://loinc.org",
              "display": "Triglyceride [Mass/volume] in Serum or Plasma"
            }
          ],
          "text": "Triglyceride [Mass/volume] in Serum or Plasma"
        },
        "valueQuantity": {
          "system": "http://unitsofmeasure.org",
          "value": 109.5,
          "unit": "mg/dL",
          "code": "mg/dL"
        },
        "referenceRange": [
          {
            "low": {
              "value": 35,
              "code": "mg/dL",
              "system": "http://unitsofmeasure.org"
            }
          },
          {
            "high": {
              "value": 150,
              "code": "mg/dL",
              "system": "http://unitsofmeasure.org"
            }
          }
        ],
        "text": {
          "status": "generated",
          "div": "<div xmlns=\"http://www.w3.org/1999/xhtml\"><table class=\"hl7__eu__lab__report\"><tr><th>Test</th><th>06-Apr-2023</th><th>Reference&#xA0;Range</th><th>Unit</th></tr><tr><td>Triglyceride [Mass/volume] in Serum or Plasma</td><td>109.5</td><td>35 - 150</td><td></td><td>mg/dL</td></tr></table></div>"
        },
        "status": "final",
        "subject": {
          "reference": "urn:uuid:c8c51609-d393-40ac-8f78-22c9acd2525f",
          "display": "Mary Campbell"
        },
        "effectiveDateTime": "2023-04-06T01:39:45Z"
      }
    },
    {
      "fullUrl": "urn:uuid:c5ccec9b-5b1d-4e1b-b013-e090f07d9633",
      "resource": {
        "resourceType": "Observation",
        "id": "c5ccec9b-5b1d-4e1b-b013-e090f07d9633",
        "meta": {
          "profile": [
            "http://hl7.eu/fhir/laboratory/StructureDefinition/Observation-resultslab-eu-lab"
          ]
        },
        "performer": [
          {
            "display": "The Central European Lab"
          }
        ],
        "category": [
          {
            "coding": [
              {
                "system": "http://terminology.hl7.org/CodeSystem/observation-category",
                "code": "laboratory"
              }
            ]
          }
        ],
        "code": {
          "coding": [
            {
              "code": "18262-6",
              "system": "http://loinc.org",
              "display": "Cholesterol in LDL [Mass/volume] in Serum or Plasma by Direct assay"
            }
          ],
          "text": "Cholesterol in LDL [Mass/volume] in Serum or Plasma by Direct assay"
        },
        "valueQuantity": {
          "system": "http://unitsofmeasure.org",
          "value": 94.5,
          "unit": "mg/dL",
          "code": "mg/dL"
        },
        "referenceRange": [
          {
            "low": {
              "value": 0,
              "code": "mg/dL",
              "system": "http://unitsofmeasure.org"
            }
          },
          {
            "high": {
              "value": 130,
              "code": "mg/dL",
              "system": "http://unitsofmeasure.org"
            }
          }
        ],
        "text": {
          "status": "generated",
          "div": "<div xmlns=\"http://www.w3.org/1999/xhtml\"><table class=\"hl7__eu__lab__report\"><tr><th>Test</th><th>06-Apr-2023</th><th>Reference&#xA0;Range</th><th>Unit</th></tr><tr><td>Cholesterol in LDL [Mass/volume] in Serum or Plasma by Direct assay</td><td>94.5</td><td>0 - 130</td><td></td><td>mg/dL</td></tr></table></div>"
        },
        "status": "final",
        "subject": {
          "reference": "urn:uuid:c8c51609-d393-40ac-8f78-22c9acd2525f",
          "display": "Mary Campbell"
        },
        "effectiveDateTime": "2023-04-06T01:39:45Z"
      }
    },
    {
      "fullUrl": "urn:uuid:196dea46-fcbd-4024-97a9-1ddb02beabeb",
      "resource": {
        "resourceType": "Observation",
        "id": "196dea46-fcbd-4024-97a9-1ddb02beabeb",
        "meta": {
          "profile": [
            "http://hl7.eu/fhir/laboratory/StructureDefinition/Observation-resultslab-eu-lab"
          ]
        },
        "performer": [
          {
            "display": "The Central European Lab"
          }
        ],
        "category": [
          {
            "coding": [
              {
                "system": "http://terminology.hl7.org/CodeSystem/observation-category",
                "code": "laboratory"
              }
            ]
          }
        ],
        "code": {
          "coding": [
            {
              "code": "2085-9",
              "system": "http://loinc.org",
              "display": "Cholesterol in HDL [Mass/volume] in Serum or Plasma"
            }
          ],
          "text": "Cholesterol in HDL [Mass/volume] in Serum or Plasma"
        },
        "valueQuantity": {
          "system": "http://unitsofmeasure.org",
          "value": 54,
          "unit": "mg/dL",
          "code": "mg/dL"
        },
        "referenceRange": [
          {
            "low": {
              "value": 40,
              "code": "mg/dL",
              "system": "http://unitsofmeasure.org"
            }
          },
          {
            "high": {
              "value": 60,
              "code": "mg/dL",
              "system": "http://unitsofmeasure.org"
            }
          }
        ],
        "text": {
          "status": "generated",
          "div": "<div xmlns=\"http://www.w3.org/1999/xhtml\"><table class=\"hl7__eu__lab__report\"><tr><th>Test</th><th>06-Apr-2023</th><th>Reference&#xA0;Range</th><th>Unit</th></tr><tr><td>Cholesterol in HDL [Mass/volume] in Serum or Plasma</td><td>54.0</td><td>40 - 60</td><td></td><td>mg/dL</td></tr></table></div>"
        },
        "status": "final",
        "subject": {
          "reference": "urn:uuid:c8c51609-d393-40ac-8f78-22c9acd2525f",
          "display": "Mary Campbell"
        },
        "effectiveDateTime": "2023-04-06T01:39:45Z"
      }
    },
    {
      "fullUrl": "urn:uuid:3ed6c5f5-7f04-4eb9-8b2c-81380c14aba3",
      "resource": {
        "resourceType": "DeviceUseStatement",
        "id": "3ed6c5f5-7f04-4eb9-8b2c-81380c14aba3",
        "meta": {
          "profile": [
            "http://hl7.eu/fhir/eps/StructureDefinition/deviceUseStatement-eu-eps"
          ]
        },
        "timingPeriod": {
          "start": "2018-10-25"
        },
        "text": {
          "status": "generated",
          "div": "<div xmlns=\"http://www.w3.org/1999/xhtml\"><table class=\"hl7__ips\"><tr><td>Walker (physical object)</td><td><span class=\"nb\">25-Oct-2018</span></td></tr></table></div>"
        },
        "status": "active",
        "device": {
          "reference": "urn:uuid:5234f8dc-ce4a-4ec1-8b58-2e95b06510f0",
          "display": "Walker (physical object)"
        },
        "subject": {
          "reference": "urn:uuid:c8c51609-d393-40ac-8f78-22c9acd2525f",
          "display": "Mary Campbell"
        }
      }
    },
    {
      "fullUrl": "urn:uuid:5234f8dc-ce4a-4ec1-8b58-2e95b06510f0",
      "resource": {
        "resourceType": "Device",
        "id": "5234f8dc-ce4a-4ec1-8b58-2e95b06510f0",
        "meta": {
          "profile": [
            "http://hl7.eu/fhir/eps/StructureDefinition/device-eu-eps"
          ]
        },
        "udiCarrier": [
          {
            "id": "(01)29865059009629(11)181004(17)431019(10)73478257(21)507690"
          }
        ],
        "status": "active",
        "patient": {
          "reference": "urn:uuid:c8c51609-d393-40ac-8f78-22c9acd2525f",
          "display": "Mary Campbell"
        },
        "type": {
          "coding": [
            {
              "code": "705406009",
              "system": "http://snomed.info/sct",
              "display": "Walker (physical object)"
            }
          ]
        }
      }
    },
    {
      "fullUrl": "urn:uuid:5f032cd4-6506-40d1-aab9-ad55bb6f1838",
      "resource": {
        "resourceType": "Device",
        "id": "5f032cd4-6506-40d1-aab9-ad55bb6f1838",
        "deviceName": [
          {
            "name": "SYNDERAI Synthetic Generator",
            "type": "manufacturer-name"
          }
        ],
        "version": [
          {
            "value": "5.0"
          }
        ],
        "text": {
          "status": "generated",
          "div": "<div xmlns=\"http://www.w3.org/1999/xhtml\">SYNDERAI Synthetic Generator v5.0</div>"
        },
        "status": "active",
        "distinctIdentifier": "synderai-generator-50",
        "manufacturer": "SYNDERAI Project"
      }
    },
    {
      "fullUrl": "urn:uuid:03d33673-3356-4f01-ab14-13a1cffade75",
      "resource": {
        "resourceType": "Provenance",
        "id": "03d33673-3356-4f01-ab14-13a1cffade75",
        "target": [
          {
            "reference": "Patient/c8c51609-d393-40ac-8f78-22c9acd2525f"
          },
          {
            "reference": "Bundle/f2e27875-2233-4bd7-876c-4a9f4f7cd785"
          },
          {
            "reference": "Composition/5bc51191-3ec0-4e72-b0ed-712b49255aa0"
          },
          {
            "reference": "PractitionerRole/7c424b83-27c3-4777-8c47-d1dd61618914"
          },
          {
            "reference": "Organization/03b34348-cbed-489c-b8d6-e06ccce4950c"
          },
          {
            "reference": "Practitioner/5fc1cb47-51cf-40b1-83dd-07ce6010bf68"
          }
        ],
        "activity": {
          "text": "Synthetic Example Data Generation"
        },
        "policy": [
          "https://synderai.net/synderai-synthetic-data-policy"
        ],
        "agent": [
          {
            "type": {
              "text": "author"
            },
            "who": {
              "reference": "Device/5f032cd4-6506-40d1-aab9-ad55bb6f1838"
            }
          }
        ],
        "reason": [
          {
            "text": "Interoperability Testing and Training (non-clinical use)"
          }
        ],
        "text": {
          "status": "generated",
          "div": "<div xmlns=\"http://www.w3.org/1999/xhtml\">Provenance for SYNDERAI Synthetic Example Data Resource</div>"
        },
        "recorded": "2023-04-06T01:39:45Z"
      }
    }
  ],
  "type": "document",
  "timestamp": "2023-04-06T01:39:45Z"
}
