{
  "resourceType": "Bundle",
  "id": "04512115-f62e-4923-96da-d1d5ddd31d6d",
  "meta": {
    "profile": [
      "http://hl7.eu/fhir/eps/StructureDefinition/bundle-eu-eps"
    ]
  },
  "identifier": {
    "assigner": {
      "display": "HL7 Europe"
    },
    "system": "urn:oid:2.16.840.1.113883.2.51.999",
    "value": "1a5c6710-fac1-4a2f-97e3-5525f15e4b1d"
  },
  "entry": [
    {
      "fullUrl": "urn:uuid:6725bb9a-e065-47fb-a029-6b3f473d21f7",
      "resource": {
        "resourceType": "Composition",
        "id": "6725bb9a-e065-47fb-a029-6b3f473d21f7",
        "meta": {
          "security": [
            {
              "system": "http://terminology.hl7.org/CodeSystem/v3-ActReason",
              "code": "HTEST"
            },
            {
              "system": "http://terminology.hl7.org/CodeSystem/v3-ActReason",
              "code": "TRAIN"
            }
          ],
          "tag": [
            {
              "system": "https://synderai.net/fhir/CodeSystem/tags",
              "code": "synthetic",
              "display": "SYNDERAI Synthetic data"
            }
          ],
          "profile": [
            "http://hl7.eu/fhir/eps/StructureDefinition/composition-eu-eps"
          ]
        },
        "identifier": {
          "assigner": {
            "display": "HL7 Europe"
          },
          "system": "urn:oid:2.16.840.1.113883.2.51.999",
          "value": "be5cdf6a-6a9e-4738-8cac-b5223be44ff6"
        },
        "type": {
          "coding": [
            {
              "code": "60591-5",
              "system": "http://loinc.org",
              "display": "Patient summary Document"
            }
          ],
          "text": "Patient summary Document"
        },
        "author": [
          {
            "reference": "urn:uuid:970d9c2b-cbe3-46ae-b772-d53518a75068"
          }
        ],
        "section": [
          {
            "text": {
              "status": "generated",
              "div": "<div xmlns=\"http://www.w3.org/1999/xhtml\"><table class=\"hl7__ips\"><tr><th>Condition</th><th>Onset Date</th><th>Status</th></tr><tr><td>Transformed migraine</td><td><span class=\"nb\">31-Jan-2014</span></td><td>active</td></tr></table></div>"
            },
            "entry": [
              {
                "reference": "urn:uuid:58662582-c74e-49db-a1e6-a8a5a5febf11"
              }
            ],
            "code": {
              "coding": [
                {
                  "system": "http://loinc.org",
                  "code": "11450-4",
                  "display": "Problem list - Reported"
                }
              ]
            },
            "title": "Problem list"
          },
          {
            "text": {
              "status": "generated",
              "div": "<div xmlns=\"http://www.w3.org/1999/xhtml\"><table class=\"hl7__ips\"><tr><td>No known medications</td></tr></table></div>"
            },
            "entry": [
              {
                "reference": "urn:uuid:a62db682-dda2-4e9c-a712-ed188f3173fd"
              }
            ],
            "code": {
              "coding": [
                {
                  "system": "http://loinc.org",
                  "code": "10160-0",
                  "display": "History of Medication use Narrative"
                }
              ]
            },
            "title": "Medication list"
          },
          {
            "text": {
              "status": "generated",
              "div": "<div xmlns=\"http://www.w3.org/1999/xhtml\"><table class=\"hl7__ips\"><tr><th>Vaccine</th><th>Date</th></tr><tr><td>Hepatitis A virus antigen only vaccine product</td><td><span class=\"nb\">16-Apr-2025</span></td></tr><tr><td>Influenza virus antigen only vaccine product</td><td><span class=\"nb\">16-Apr-2025</span></td></tr><tr><td>COVID-19 non-replicating viral vector vaccine</td><td><span class=\"nb\">14-Apr-2021</span></td></tr><tr><td>Clostridium tetani toxoid antigen adsorbed only vaccine product</td><td><span class=\"nb\">24-Feb-2016</span></td></tr></table></div>"
            },
            "entry": [
              {
                "reference": "urn:uuid:04cc520c-d5f8-4e34-89c8-004944f8141f"
              }
            ],
            "code": {
              "coding": [
                {
                  "system": "http://loinc.org",
                  "code": "11369-6",
                  "display": "History of Immunization note"
                }
              ]
            },
            "title": "Immunizations list"
          },
          {
            "text": {
              "status": "generated",
              "div": "<div xmlns=\"http://www.w3.org/1999/xhtml\"><table class=\"hl7__ips\"><tr><th>Procedure</th><th>Date</th><th>Reason</th></tr><tr><td>Postoperative care</td><td><span class=\"nb\">08-Sep-2019</span></td><td>History of tubal ligation (situation)</td></tr><tr><td>Ligation of bilateral fallopian tubes</td><td><span class=\"nb\">08-Sep-2019</span></td><td>Sterilization requested (situation)</td></tr></table></div>"
            },
            "entry": [
              {
                "reference": "urn:uuid:79de0005-c3f2-4e33-a2b3-1764743409ba"
              }
            ],
            "code": {
              "coding": [
                {
                  "system": "http://loinc.org",
                  "code": "47519-4",
                  "display": "History of Procedures Document"
                }
              ]
            },
            "title": "Procedure History list"
          },
          {
            "text": {
              "status": "generated",
              "div": "<div xmlns=\"http://www.w3.org/1999/xhtml\"><table class=\"hl7__ips\"><tr><th>Allergy/Intolerance</th><th>Onset Date</th><th>Status</th><th>Type</th><th>Reaction</th></tr><tr><td></td><td>?</td><td>active</td><td>?</td><td></td></tr></table></div>"
            },
            "entry": [
              {
                "reference": "urn:uuid:eb5f886e-0adb-4b38-ae46-a7411d6cd842"
              }
            ],
            "code": {
              "coding": [
                {
                  "system": "http://loinc.org",
                  "code": "48765-2",
                  "display": "Allergies and adverse reactions Document"
                }
              ]
            },
            "title": "Allergies and Intolerances"
          },
          {
            "text": {
              "status": "generated",
              "div": "<div xmlns=\"http://www.w3.org/1999/xhtml\"><table class=\"hl7__ips\"><tr><th>Vital Signs</th><th>2025-04-16</th><th>2024-04-10</th></tr><tr><td>Body Height</td><td>151.1 cm</td><td>151.1 cm</td></tr><tr><td>Pain severity - 0-10 verbal numeric rating [Score] - Reported</td><td>2 {score}</td><td>1 {score}</td></tr><tr><td>Body Weight</td><td>65.5 kg</td><td>65.8 kg</td></tr><tr><td>Body mass index (BMI) [Ratio]</td><td>28.7 kg/m2</td><td>28.8 kg/m2</td></tr><tr><td>Diastolic Blood Pressure</td><td>64 mm[Hg]</td><td>64 mm[Hg]</td></tr><tr><td>Systolic Blood Pressure</td><td>96 mm[Hg]</td><td>93 mm[Hg]</td></tr><tr><td>Heart rate</td><td>69 /min</td><td>69 /min</td></tr><tr><td>Respiratory rate</td><td>15 /min</td><td>14 /min</td></tr></table></div>"
            },
            "entry": [
              {
                "reference": "urn:uuid:79354a0a-d874-491e-a435-29fe19cee879"
              }
            ],
            "code": {
              "coding": [
                {
                  "system": "http://loinc.org",
                  "code": "8716-3",
                  "display": "Vital signs note"
                }
              ]
            },
            "title": "Vital Signs"
          },
          {
            "text": {
              "status": "generated",
              "div": "<div xmlns=\"http://www.w3.org/1999/xhtml\"><table class=\"hl7__ips\"><table class=\"hl7__ips\"><thead><tr><th>Recent Lab Observations</th><th>10-APR-2024</th><th>Reference&#xA0;Range</th><th>Unit</th></tr></thead><tbody><tr><td>Cholesterol [Mass/volume] in Serum or Plasma</td><td>168.2</td><td>125 - 200</td><td>mg/dL</td></tr><tr><td>Triglyceride [Mass/volume] in Serum or Plasma</td><td>125.4</td><td>35 - 150</td><td>mg/dL</td></tr><tr><td>Cholesterol in LDL [Mass/volume] in Serum or Plasma by Direct assay</td><td>110.3</td><td>0 - 130</td><td>mg/dL</td></tr><tr><td>Cholesterol in HDL [Mass/volume] in Serum or Plasma</td><td><strong>32.8 L</strong></td><td>40 - 100</td><td>mg/dL</td></tr></tbody></table></table></div>"
            },
            "title": "Relevant diagnostic tests/laboratory data",
            "code": {
              "coding": [
                {
                  "code": "30954-2",
                  "system": "http://loinc.org",
                  "display": "Relevant diagnostic tests/laboratory data note"
                }
              ]
            }
          }
        ],
        "title": "European Patient Summary",
        "status": "final",
        "subject": {
          "reference": "urn:uuid:8937331a-26c4-4a3f-84a5-b91f54639fd4",
          "display": "Miroslava Staňková"
        },
        "custodian": {
          "reference": "urn:uuid:697b7ff2-26d7-4929-8391-f51844e8af84"
        },
        "date": "2024-04-10",
        "confidentiality": "N"
      }
    },
    {
      "fullUrl": "urn:uuid:8937331a-26c4-4a3f-84a5-b91f54639fd4",
      "resource": {
        "resourceType": "Patient",
        "id": "8937331a-26c4-4a3f-84a5-b91f54639fd4",
        "meta": {
          "security": [
            {
              "system": "http://terminology.hl7.org/CodeSystem/v3-ActReason",
              "code": "HTEST"
            },
            {
              "system": "http://terminology.hl7.org/CodeSystem/v3-ActReason",
              "code": "TRAIN"
            }
          ],
          "tag": [
            {
              "system": "https://synderai.net/fhir/CodeSystem/tags",
              "code": "synthetic",
              "display": "SYNDERAI Synthetic data"
            }
          ],
          "profile": [
            "http://hl7.eu/fhir/eps/StructureDefinition/patient-eu-eps"
          ]
        },
        "identifier": [
          {
            "type": {
              "coding": [
                {
                  "code": "PT",
                  "system": "http://terminology.hl7.org/CodeSystem/v2-0203"
                }
              ]
            },
            "system": "http://ec.europa.eu/identifier/eci",
            "value": "7981-969754-5"
          },
          {
            "type": {
              "coding": [
                {
                  "code": "MR",
                  "system": "http://terminology.hl7.org/CodeSystem/v2-0203"
                }
              ]
            },
            "system": "http://local.setting.eu/identifier",
            "value": "21c79a2b-0cc1-faa2-9e83-cc9987cdcd49"
          }
        ],
        "name": [
          {
            "given": [
              "Miroslava"
            ],
            "family": "Staňková",
            "text": "Miroslava Staňková"
          }
        ],
        "address": [
          {
            "line": [
              "Ambrožova 71"
            ],
            "use": "home",
            "type": "physical",
            "postalCode": "46362",
            "city": "Hejnice",
            "country": "Czechia"
          }
        ],
        "telecom": [
          {
            "system": "phone",
            "value": "00420 607 293 296"
          }
        ],
        "extension": [
          {
            "url": "http://hl7.org/fhir/StructureDefinition/patient-nationality",
            "valueCodeableConcept": {
              "coding": [
                {
                  "code": "CZ",
                  "system": "http://hl7.org/fhir/ValueSet/country"
                }
              ]
            }
          }
        ],
        "text": {
          "status": "generated",
          "div": "<div xmlns=\"http://www.w3.org/1999/xhtml\"><table class=\"hl7__ips\"><tr><td>Miroslava Staňková</td><td>female</td><td>29-Sep-1987</td></tr></table></div>"
        },
        "gender": "female",
        "birthDate": "1987-09-29"
      }
    },
    {
      "fullUrl": "urn:uuid:970d9c2b-cbe3-46ae-b772-d53518a75068",
      "resource": {
        "resourceType": "PractitionerRole",
        "id": "970d9c2b-cbe3-46ae-b772-d53518a75068",
        "meta": {
          "profile": [
            "http://hl7.eu/fhir/base/StructureDefinition/practitionerRole-eu"
          ]
        },
        "text": {
          "status": "generated",
          "div": "<div xmlns=\"http://www.w3.org/1999/xhtml\"><table class=\"hl7__ips\">Provider Role Id 970d9c2b-cbe3-46ae-b772-d53518a75068</table></div>"
        },
        "practitioner": {
          "reference": "urn:uuid:4d8f0106-21a1-485d-9288-932624dc9bad"
        },
        "organization": {
          "reference": "urn:uuid:697b7ff2-26d7-4929-8391-f51844e8af84"
        }
      }
    },
    {
      "fullUrl": "urn:uuid:697b7ff2-26d7-4929-8391-f51844e8af84",
      "resource": {
        "resourceType": "Organization",
        "id": "697b7ff2-26d7-4929-8391-f51844e8af84",
        "meta": {
          "profile": [
            "http://hl7.eu/fhir/base/StructureDefinition/organization-eu"
          ]
        },
        "identifier": [
          {
            "assigner": {
              "display": "HL7 Europe"
            },
            "system": "urn:oid:2.16.840.1.113883.2.51.999",
            "value": "fd002bb7-09b9-46a1-bac8-425717d949ae"
          }
        ],
        "address": [
          {
            "city": "Lázně Libverda",
            "postalCode": "463 62",
            "country": "Czechia"
          }
        ],
        "text": {
          "status": "generated",
          "div": "<div xmlns=\"http://www.w3.org/1999/xhtml\"><table class=\"hl7__ips\">Uhličité koupele</table></div>"
        },
        "name": "Uhličité koupele"
      }
    },
    {
      "fullUrl": "urn:uuid:4d8f0106-21a1-485d-9288-932624dc9bad",
      "resource": {
        "resourceType": "Practitioner",
        "id": "4d8f0106-21a1-485d-9288-932624dc9bad",
        "meta": {
          "profile": [
            "http://hl7.eu/fhir/base/StructureDefinition/practitioner-eu"
          ]
        },
        "name": [
          {
            "prefix": [
              "Dr."
            ],
            "given": [
              "Hel"
            ],
            "family": "Ping"
          }
        ],
        "text": {
          "status": "generated",
          "div": "<div xmlns=\"http://www.w3.org/1999/xhtml\"><table class=\"hl7__ips\">Dr. Hel Ping</table></div>"
        }
      }
    },
    {
      "fullUrl": "urn:uuid:58662582-c74e-49db-a1e6-a8a5a5febf11",
      "resource": {
        "resourceType": "Condition",
        "id": "58662582-c74e-49db-a1e6-a8a5a5febf11",
        "meta": {
          "profile": [
            "http://hl7.org/fhir/uv/ips/StructureDefinition/Condition-uv-ips"
          ]
        },
        "category": [
          {
            "coding": [
              {
                "code": "problem-list-item",
                "system": "http://terminology.hl7.org/CodeSystem/condition-category",
                "display": "Problem List Item"
              }
            ]
          }
        ],
        "code": {
          "coding": [
            {
              "code": "427419006",
              "system": "http://snomed.info/sct",
              "display": "Transformed migraine (disorder)"
            }
          ],
          "text": "Transformed migraine"
        },
        "text": {
          "status": "generated",
          "div": "<div xmlns=\"http://www.w3.org/1999/xhtml\"><table class=\"hl7__ips\"><tr><td>Transformed migraine</td><td><span class=\"nb\">31-Jan-2014</span></td><td>active</td></tr></table></div>"
        },
        "onsetDateTime": "2014-01-31",
        "subject": {
          "reference": "urn:uuid:8937331a-26c4-4a3f-84a5-b91f54639fd4",
          "display": "Miroslava Staňková"
        },
        "asserter": {
          "reference": "urn:uuid:970d9c2b-cbe3-46ae-b772-d53518a75068",
          "display": "Uhličité koupele"
        }
      }
    },
    {
      "fullUrl": "urn:uuid:8574d502-8a37-4146-95b4-b600a5c0b228",
      "resource": {
        "resourceType": "Condition",
        "id": "8574d502-8a37-4146-95b4-b600a5c0b228",
        "meta": {
          "profile": [
            "http://hl7.org/fhir/uv/ips/StructureDefinition/Condition-uv-ips"
          ]
        },
        "category": [
          {
            "coding": [
              {
                "code": "problem-list-item",
                "system": "http://terminology.hl7.org/CodeSystem/condition-category",
                "display": "Problem List Item"
              }
            ]
          }
        ],
        "code": {
          "coding": [
            {
              "code": "195662009",
              "system": "http://snomed.info/sct",
              "display": "Acute viral pharyngitis (disorder)"
            }
          ],
          "text": "Acute viral pharyngitis"
        },
        "text": {
          "status": "generated",
          "div": "<div xmlns=\"http://www.w3.org/1999/xhtml\"><table class=\"hl7__ips\"><tr><td><span class=\"grayedout\">Acute viral pharyngitis</span></td><td><span class=\"nb\">27-Sep-2020 - 09-Oct-2020</span></td><td><span class=\"grayedout\">inactive</span></td></tr></table></div>"
        },
        "onsetDateTime": "2020-09-27",
        "abatementDateTime": "2020-10-09",
        "subject": {
          "reference": "urn:uuid:8937331a-26c4-4a3f-84a5-b91f54639fd4",
          "display": "Miroslava Staňková"
        },
        "asserter": {
          "reference": "urn:uuid:970d9c2b-cbe3-46ae-b772-d53518a75068",
          "display": "Uhličité koupele"
        }
      }
    },
    {
      "fullUrl": "urn:uuid:4cfa29d2-8868-41e9-b809-b485cb94d95e",
      "resource": {
        "resourceType": "Condition",
        "id": "4cfa29d2-8868-41e9-b809-b485cb94d95e",
        "meta": {
          "profile": [
            "http://hl7.org/fhir/uv/ips/StructureDefinition/Condition-uv-ips"
          ]
        },
        "category": [
          {
            "coding": [
              {
                "code": "problem-list-item",
                "system": "http://terminology.hl7.org/CodeSystem/condition-category",
                "display": "Problem List Item"
              }
            ]
          }
        ],
        "code": {
          "coding": [
            {
              "code": "19169002",
              "system": "http://snomed.info/sct",
              "display": "Miscarriage in first trimester (disorder)"
            }
          ],
          "text": "Miscarriage in first trimester"
        },
        "text": {
          "status": "generated",
          "div": "<div xmlns=\"http://www.w3.org/1999/xhtml\"><table class=\"hl7__ips\"><tr><td><span class=\"grayedout\">Miscarriage in first trimester</span></td><td><span class=\"nb\">26-Aug-2015 - 09-Sep-2015</span></td><td><span class=\"grayedout\">inactive</span></td></tr></table></div>"
        },
        "onsetDateTime": "2015-08-26",
        "abatementDateTime": "2015-09-09",
        "subject": {
          "reference": "urn:uuid:8937331a-26c4-4a3f-84a5-b91f54639fd4",
          "display": "Miroslava Staňková"
        },
        "asserter": {
          "reference": "urn:uuid:970d9c2b-cbe3-46ae-b772-d53518a75068",
          "display": "Uhličité koupele"
        }
      }
    },
    {
      "fullUrl": "urn:uuid:e336fe86-f6ba-413c-9eb8-db79b7e950a2",
      "resource": {
        "resourceType": "Condition",
        "id": "e336fe86-f6ba-413c-9eb8-db79b7e950a2",
        "meta": {
          "profile": [
            "http://hl7.org/fhir/uv/ips/StructureDefinition/Condition-uv-ips"
          ]
        },
        "category": [
          {
            "coding": [
              {
                "code": "problem-list-item",
                "system": "http://terminology.hl7.org/CodeSystem/condition-category",
                "display": "Problem List Item"
              }
            ]
          }
        ],
        "code": {
          "coding": [
            {
              "code": "156073000",
              "system": "http://snomed.info/sct",
              "display": "Complete miscarriage (disorder)"
            }
          ],
          "text": "Complete miscarriage"
        },
        "text": {
          "status": "generated",
          "div": "<div xmlns=\"http://www.w3.org/1999/xhtml\"><table class=\"hl7__ips\"><tr><td><span class=\"grayedout\">Complete miscarriage</span></td><td><span class=\"nb\">26-Aug-2015 - 09-Sep-2015</span></td><td><span class=\"grayedout\">inactive</span></td></tr></table></div>"
        },
        "onsetDateTime": "2015-08-26",
        "abatementDateTime": "2015-09-09",
        "subject": {
          "reference": "urn:uuid:8937331a-26c4-4a3f-84a5-b91f54639fd4",
          "display": "Miroslava Staňková"
        },
        "asserter": {
          "reference": "urn:uuid:970d9c2b-cbe3-46ae-b772-d53518a75068",
          "display": "Uhličité koupele"
        }
      }
    },
    {
      "fullUrl": "urn:uuid:a62db682-dda2-4e9c-a712-ed188f3173fd",
      "resource": {
        "resourceType": "MedicationStatement",
        "id": "a62db682-dda2-4e9c-a712-ed188f3173fd",
        "meta": {
          "profile": [
            "http://hl7.eu/fhir/eps/StructureDefinition/MedicationStatement-eu-eps"
          ]
        },
        "effectivePeriod": {
          "extension": [
            {
              "url": "http://hl7.org/fhir/StructureDefinition/data-absent-reason",
              "valueCode": "unknown"
            }
          ]
        },
        "status": "active",
        "medicationCodeableConcept": {
          "coding": [
            {
              "code": "787481004",
              "system": "http://snomed.info/sct",
              "display": "No known medications (situation)"
            }
          ]
        },
        "subject": {
          "reference": "urn:uuid:8937331a-26c4-4a3f-84a5-b91f54639fd4",
          "display": "Miroslava Staňková"
        }
      }
    },
    {
      "fullUrl": "urn:uuid:04cc520c-d5f8-4e34-89c8-004944f8141f",
      "resource": {
        "resourceType": "Immunization",
        "id": "04cc520c-d5f8-4e34-89c8-004944f8141f",
        "meta": {
          "profile": [
            "http://hl7.org/fhir/uv/ips/StructureDefinition/Immunization-uv-ips"
          ]
        },
        "vaccineCode": {
          "coding": [
            {
              "code": "871751006",
              "system": "http://snomed.info/sct",
              "display": "Vaccine product containing Hepatitis A virus antigen"
            },
            {
              "code": "J07BC02",
              "system": "http://www.whocc.no/atc",
              "display": "Hepatitis A vaccines"
            }
          ],
          "text": "Hepatitis A virus antigen only vaccine product"
        },
        "site": {
          "coding": [
            {
              "code": "244979005",
              "system": "http://snomed.info/sct",
              "display": "Entire muscle of upper arm"
            }
          ],
          "text": "Entire muscle of upper arm"
        },
        "route": {
          "coding": [
            {
              "code": "78421000",
              "system": "http://snomed.info/sct",
              "display": "Intramuscular route"
            }
          ],
          "text": "Intramuscular route"
        },
        "text": {
          "status": "generated",
          "div": "<div xmlns=\"http://www.w3.org/1999/xhtml\"><table class=\"hl7__ips\"><tr><td>Hepatitis A virus antigen only vaccine product</td><td><span class=\"nb\">16-Apr-2025</span></td></tr></table></div>"
        },
        "status": "completed",
        "patient": {
          "reference": "urn:uuid:8937331a-26c4-4a3f-84a5-b91f54639fd4",
          "display": "Miroslava Staňková"
        },
        "occurrenceDateTime": "2025-04-16",
        "lotNumber": "AU-SiLw7j",
        "expirationDate": "2025-06-01"
      }
    },
    {
      "fullUrl": "urn:uuid:ab2eb622-14a4-4cff-abff-fa0dd0b04ae1",
      "resource": {
        "resourceType": "Immunization",
        "id": "ab2eb622-14a4-4cff-abff-fa0dd0b04ae1",
        "meta": {
          "profile": [
            "http://hl7.org/fhir/uv/ips/StructureDefinition/Immunization-uv-ips"
          ]
        },
        "vaccineCode": {
          "coding": [
            {
              "code": "1181000221105",
              "system": "http://snomed.info/sct",
              "display": "Vaccine product containing Influenza virus antigen"
            },
            {
              "code": "J07BB02",
              "system": "http://www.whocc.no/atc",
              "display": "Influenza, inactivated, split virus"
            }
          ],
          "text": "Influenza virus antigen only vaccine product"
        },
        "site": {
          "coding": [
            {
              "code": "244979005",
              "system": "http://snomed.info/sct",
              "display": "Entire muscle of upper arm"
            }
          ],
          "text": "Entire muscle of upper arm"
        },
        "route": {
          "coding": [
            {
              "code": "78421000",
              "system": "http://snomed.info/sct",
              "display": "Intramuscular route"
            }
          ],
          "text": "Intramuscular route"
        },
        "text": {
          "status": "generated",
          "div": "<div xmlns=\"http://www.w3.org/1999/xhtml\"><table class=\"hl7__ips\"><tr><td>Influenza virus antigen only vaccine product</td><td><span class=\"nb\">16-Apr-2025</span></td></tr></table></div>"
        },
        "status": "completed",
        "patient": {
          "reference": "urn:uuid:8937331a-26c4-4a3f-84a5-b91f54639fd4",
          "display": "Miroslava Staňková"
        },
        "occurrenceDateTime": "2025-04-16",
        "lotNumber": "OV-iEy0GvGK0",
        "expirationDate": "2026-04-01"
      }
    },
    {
      "fullUrl": "urn:uuid:0b1dbd64-e1d6-4af7-9947-baf7bfa4dc6d",
      "resource": {
        "resourceType": "Immunization",
        "id": "0b1dbd64-e1d6-4af7-9947-baf7bfa4dc6d",
        "meta": {
          "profile": [
            "http://hl7.org/fhir/uv/ips/StructureDefinition/Immunization-uv-ips"
          ]
        },
        "vaccineCode": {
          "coding": [
            {
              "code": "29061000087103",
              "system": "http://snomed.info/sct",
              "display": "Vaccine product containing recombinant viral vector encoding SARS-CoV-2 spike protein"
            },
            {
              "code": "J07BX03",
              "system": "http://www.whocc.no/atc",
              "display": "COVID-19 vector vaccines (non-replicating)"
            }
          ],
          "text": "COVID-19 non-replicating viral vector vaccine"
        },
        "site": {
          "coding": [
            {
              "code": "244979005",
              "system": "http://snomed.info/sct",
              "display": "Entire muscle of upper arm"
            }
          ],
          "text": "Entire muscle of upper arm"
        },
        "route": {
          "coding": [
            {
              "code": "78421000",
              "system": "http://snomed.info/sct",
              "display": "Intramuscular route"
            }
          ],
          "text": "Intramuscular route"
        },
        "text": {
          "status": "generated",
          "div": "<div xmlns=\"http://www.w3.org/1999/xhtml\"><table class=\"hl7__ips\"><tr><td>COVID-19 non-replicating viral vector vaccine</td><td><span class=\"nb\">14-Apr-2021</span></td></tr></table></div>"
        },
        "status": "completed",
        "patient": {
          "reference": "urn:uuid:8937331a-26c4-4a3f-84a5-b91f54639fd4",
          "display": "Miroslava Staňková"
        },
        "occurrenceDateTime": "2021-04-14",
        "lotNumber": "LU-0EXVx",
        "expirationDate": "2021-09-16"
      }
    },
    {
      "fullUrl": "urn:uuid:9547aba2-da2c-4c5b-b0e6-972aa4bbbd25",
      "resource": {
        "resourceType": "Immunization",
        "id": "9547aba2-da2c-4c5b-b0e6-972aa4bbbd25",
        "meta": {
          "profile": [
            "http://hl7.org/fhir/uv/ips/StructureDefinition/Immunization-uv-ips"
          ]
        },
        "vaccineCode": {
          "coding": [
            {
              "code": "777725002",
              "system": "http://snomed.info/sct",
              "display": "Vaccine product containing only Clostridium tetani toxoid antigen adsorbed"
            },
            {
              "code": "J07AM51",
              "system": "http://www.whocc.no/atc",
              "display": "Diphtheria-tetanus vaccines, adult type"
            }
          ],
          "text": "Clostridium tetani toxoid antigen adsorbed only vaccine product"
        },
        "site": {
          "coding": [
            {
              "code": "244979005",
              "system": "http://snomed.info/sct",
              "display": "Entire muscle of upper arm"
            }
          ],
          "text": "Entire muscle of upper arm"
        },
        "route": {
          "coding": [
            {
              "code": "78421000",
              "system": "http://snomed.info/sct",
              "display": "Intramuscular route"
            }
          ],
          "text": "Intramuscular route"
        },
        "text": {
          "status": "generated",
          "div": "<div xmlns=\"http://www.w3.org/1999/xhtml\"><table class=\"hl7__ips\"><tr><td>Clostridium tetani toxoid antigen adsorbed only vaccine product</td><td><span class=\"nb\">24-Feb-2016</span></td></tr></table></div>"
        },
        "status": "completed",
        "patient": {
          "reference": "urn:uuid:8937331a-26c4-4a3f-84a5-b91f54639fd4",
          "display": "Miroslava Staňková"
        },
        "occurrenceDateTime": "2016-02-24",
        "lotNumber": "BQ-C580n3",
        "expirationDate": "2017-02-24"
      }
    },
    {
      "fullUrl": "urn:uuid:79de0005-c3f2-4e33-a2b3-1764743409ba",
      "resource": {
        "resourceType": "Procedure",
        "id": "79de0005-c3f2-4e33-a2b3-1764743409ba",
        "meta": {
          "profile": [
            "http://hl7.org/fhir/uv/ips/StructureDefinition/Procedure-uv-ips"
          ]
        },
        "code": {
          "coding": [
            {
              "code": "133899007",
              "system": "http://snomed.info/sct",
              "display": "Postoperative care (regime/therapy)"
            }
          ],
          "text": "Postoperative care"
        },
        "reasonCode": [
          {
            "coding": [
              {
                "code": "267020005",
                "system": "http://snomed.info/sct",
                "display": "History of tubal ligation (situation)"
              }
            ]
          }
        ],
        "text": {
          "status": "generated",
          "div": "<div xmlns=\"http://www.w3.org/1999/xhtml\"><table class=\"hl7__ips\"><tr><td>Postoperative care</td><td><span class=\"nb\">08-Sep-2019</span></td><td>History of tubal ligation (situation)</td></tr></table></div>"
        },
        "status": "completed",
        "performedDateTime": "2019-09-08",
        "subject": {
          "reference": "urn:uuid:8937331a-26c4-4a3f-84a5-b91f54639fd4",
          "display": "Miroslava Staňková"
        }
      }
    },
    {
      "fullUrl": "urn:uuid:6bcb8305-a8bb-4e68-a4e4-d3edb4c30f69",
      "resource": {
        "resourceType": "Procedure",
        "id": "6bcb8305-a8bb-4e68-a4e4-d3edb4c30f69",
        "meta": {
          "profile": [
            "http://hl7.org/fhir/uv/ips/StructureDefinition/Procedure-uv-ips"
          ]
        },
        "code": {
          "coding": [
            {
              "code": "287664005",
              "system": "http://snomed.info/sct",
              "display": "Bilateral tubal ligation"
            }
          ],
          "text": "Ligation of bilateral fallopian tubes"
        },
        "reasonCode": [
          {
            "coding": [
              {
                "code": "183996000",
                "system": "http://snomed.info/sct",
                "display": "Sterilization requested (situation)"
              }
            ]
          }
        ],
        "text": {
          "status": "generated",
          "div": "<div xmlns=\"http://www.w3.org/1999/xhtml\"><table class=\"hl7__ips\"><tr><td>Ligation of bilateral fallopian tubes</td><td><span class=\"nb\">08-Sep-2019</span></td><td>Sterilization requested (situation)</td></tr></table></div>"
        },
        "status": "completed",
        "performedDateTime": "2019-09-08",
        "subject": {
          "reference": "urn:uuid:8937331a-26c4-4a3f-84a5-b91f54639fd4",
          "display": "Miroslava Staňková"
        }
      }
    },
    {
      "fullUrl": "urn:uuid:eb5f886e-0adb-4b38-ae46-a7411d6cd842",
      "resource": {
        "resourceType": "AllergyIntolerance",
        "id": "eb5f886e-0adb-4b38-ae46-a7411d6cd842",
        "meta": {
          "profile": [
            "http://hl7.eu/fhir/base/StructureDefinition/allergyIntolerance-eu-core"
          ]
        },
        "code": {
          "text": ""
        },
        "clinicalStatus": {
          "coding": [
            {
              "code": "active",
              "system": "http://terminology.hl7.org/CodeSystem/allergyintolerance-clinical"
            }
          ]
        },
        "text": {
          "status": "generated",
          "div": "<div xmlns=\"http://www.w3.org/1999/xhtml\"><table class=\"hl7__ips\"><tr><th>Allergy/Intolerance</th><th>Onset Date</th><th>Status</th><th>Type</th><th>Reaction</th></tr><tr><td></td><td>?</td><td>active</td><td>?</td><td></td></tr></table></div>"
        },
        "verificationStatus": {
          "coding": [
            {
              "code": "confirmed",
              "system": "http://terminology.hl7.org/CodeSystem/allergyintolerance-verification"
            }
          ]
        },
        "patient": {
          "reference": "urn:uuid:8937331a-26c4-4a3f-84a5-b91f54639fd4",
          "display": "Miroslava Staňková"
        },
        "_onsetDateTime": {
          "extension": [
            {
              "url": "http://hl7.org/fhir/StructureDefinition/data-absent-reason",
              "valueCode": "unknown"
            }
          ]
        }
      }
    },
    {
      "fullUrl": "urn:uuid:79354a0a-d874-491e-a435-29fe19cee879",
      "resource": {
        "resourceType": "Observation",
        "id": "79354a0a-d874-491e-a435-29fe19cee879",
        "meta": {
          "profile": [
            "http://hl7.org/fhir/StructureDefinition/vitalsigns"
          ]
        },
        "category": [
          {
            "coding": [
              {
                "system": "http://terminology.hl7.org/CodeSystem/observation-category",
                "code": "vital-signs",
                "display": "Vital Signs"
              }
            ]
          }
        ],
        "valueQuantity": {
          "value": 151.1,
          "code": "cm",
          "unit": "cm"
        },
        "text": {
          "status": "generated",
          "div": "<div xmlns=\"http://www.w3.org/1999/xhtml\"><table class=\"hl7__ips\"><tr><th>Vital Sign</th><th>Date</th><th>Measurement</th></tr><tr><td>Body Height</td><td>16-Apr-2025</td><td>151.1 cm</td></tr></table></div>"
        },
        "status": "final",
        "code": {
          "coding": [
            {
              "code": "8302-2",
              "system": "http://loinc.org",
              "display": "Body Height"
            }
          ]
        },
        "subject": {
          "reference": "urn:uuid:8937331a-26c4-4a3f-84a5-b91f54639fd4",
          "display": "Miroslava Staňková"
        },
        "effectiveDateTime": "2025-04-16"
      }
    },
    {
      "fullUrl": "urn:uuid:9ad1a093-8a02-47d6-b660-99e0f5a7a2e0",
      "resource": {
        "resourceType": "Observation",
        "id": "9ad1a093-8a02-47d6-b660-99e0f5a7a2e0",
        "meta": {
          "profile": [
            "http://hl7.org/fhir/StructureDefinition/vitalsigns"
          ]
        },
        "category": [
          {
            "coding": [
              {
                "system": "http://terminology.hl7.org/CodeSystem/observation-category",
                "code": "vital-signs",
                "display": "Vital Signs"
              }
            ]
          }
        ],
        "valueQuantity": {
          "value": 2,
          "code": "{score}",
          "unit": "{score}"
        },
        "text": {
          "status": "generated",
          "div": "<div xmlns=\"http://www.w3.org/1999/xhtml\"><table class=\"hl7__ips\"><tr><th>Vital Sign</th><th>Date</th><th>Measurement</th></tr><tr><td>Pain severity - 0-10 verbal numeric rating [Score] - Reported</td><td>16-Apr-2025</td><td>2 {score}</td></tr></table></div>"
        },
        "status": "final",
        "code": {
          "coding": [
            {
              "code": "72514-3",
              "system": "http://loinc.org",
              "display": "Pain severity - 0-10 verbal numeric rating [Score] - Reported"
            }
          ]
        },
        "subject": {
          "reference": "urn:uuid:8937331a-26c4-4a3f-84a5-b91f54639fd4",
          "display": "Miroslava Staňková"
        },
        "effectiveDateTime": "2025-04-16"
      }
    },
    {
      "fullUrl": "urn:uuid:183988b5-ff60-49f6-a666-c110884304e2",
      "resource": {
        "resourceType": "Observation",
        "id": "183988b5-ff60-49f6-a666-c110884304e2",
        "meta": {
          "profile": [
            "http://hl7.org/fhir/StructureDefinition/vitalsigns"
          ]
        },
        "category": [
          {
            "coding": [
              {
                "system": "http://terminology.hl7.org/CodeSystem/observation-category",
                "code": "vital-signs",
                "display": "Vital Signs"
              }
            ]
          }
        ],
        "valueQuantity": {
          "value": 65.5,
          "code": "kg",
          "unit": "kg"
        },
        "text": {
          "status": "generated",
          "div": "<div xmlns=\"http://www.w3.org/1999/xhtml\"><table class=\"hl7__ips\"><tr><th>Vital Sign</th><th>Date</th><th>Measurement</th></tr><tr><td>Body Weight</td><td>16-Apr-2025</td><td>65.5 kg</td></tr></table></div>"
        },
        "status": "final",
        "code": {
          "coding": [
            {
              "code": "29463-7",
              "system": "http://loinc.org",
              "display": "Body Weight"
            }
          ]
        },
        "subject": {
          "reference": "urn:uuid:8937331a-26c4-4a3f-84a5-b91f54639fd4",
          "display": "Miroslava Staňková"
        },
        "effectiveDateTime": "2025-04-16"
      }
    },
    {
      "fullUrl": "urn:uuid:ade7766a-179b-4236-8c01-b694aaf8737c",
      "resource": {
        "resourceType": "Observation",
        "id": "ade7766a-179b-4236-8c01-b694aaf8737c",
        "meta": {
          "profile": [
            "http://hl7.org/fhir/StructureDefinition/vitalsigns"
          ]
        },
        "category": [
          {
            "coding": [
              {
                "system": "http://terminology.hl7.org/CodeSystem/observation-category",
                "code": "vital-signs",
                "display": "Vital Signs"
              }
            ]
          }
        ],
        "valueQuantity": {
          "value": 28.7,
          "code": "kg/m2",
          "unit": "kg/m2"
        },
        "text": {
          "status": "generated",
          "div": "<div xmlns=\"http://www.w3.org/1999/xhtml\"><table class=\"hl7__ips\"><tr><th>Vital Sign</th><th>Date</th><th>Measurement</th></tr><tr><td>Body mass index (BMI) [Ratio]</td><td>16-Apr-2025</td><td>28.7 kg/m2</td></tr></table></div>"
        },
        "status": "final",
        "code": {
          "coding": [
            {
              "code": "39156-5",
              "system": "http://loinc.org",
              "display": "Body mass index (BMI) [Ratio]"
            }
          ]
        },
        "subject": {
          "reference": "urn:uuid:8937331a-26c4-4a3f-84a5-b91f54639fd4",
          "display": "Miroslava Staňková"
        },
        "effectiveDateTime": "2025-04-16"
      }
    },
    {
      "fullUrl": "urn:uuid:3600009f-9015-4fe2-b6e5-6f886cf7c4dc",
      "resource": {
        "resourceType": "Observation",
        "id": "3600009f-9015-4fe2-b6e5-6f886cf7c4dc",
        "meta": {
          "profile": [
            "http://hl7.org/fhir/StructureDefinition/vitalsigns"
          ]
        },
        "category": [
          {
            "coding": [
              {
                "system": "http://terminology.hl7.org/CodeSystem/observation-category",
                "code": "vital-signs",
                "display": "Vital Signs"
              }
            ]
          }
        ],
        "valueQuantity": {
          "value": 64,
          "code": "mm[Hg]",
          "unit": "mm[Hg]"
        },
        "text": {
          "status": "generated",
          "div": "<div xmlns=\"http://www.w3.org/1999/xhtml\"><table class=\"hl7__ips\"><tr><th>Vital Sign</th><th>Date</th><th>Measurement</th></tr><tr><td>Diastolic Blood Pressure</td><td>16-Apr-2025</td><td>64 mm[Hg]</td></tr></table></div>"
        },
        "status": "final",
        "code": {
          "coding": [
            {
              "code": "8462-4",
              "system": "http://loinc.org",
              "display": "Diastolic Blood Pressure"
            }
          ]
        },
        "subject": {
          "reference": "urn:uuid:8937331a-26c4-4a3f-84a5-b91f54639fd4",
          "display": "Miroslava Staňková"
        },
        "effectiveDateTime": "2025-04-16"
      }
    },
    {
      "fullUrl": "urn:uuid:b85abad4-d9c8-49ef-8e3d-dbfbe7f90dab",
      "resource": {
        "resourceType": "Observation",
        "id": "b85abad4-d9c8-49ef-8e3d-dbfbe7f90dab",
        "meta": {
          "profile": [
            "http://hl7.org/fhir/StructureDefinition/vitalsigns"
          ]
        },
        "category": [
          {
            "coding": [
              {
                "system": "http://terminology.hl7.org/CodeSystem/observation-category",
                "code": "vital-signs",
                "display": "Vital Signs"
              }
            ]
          }
        ],
        "valueQuantity": {
          "value": 96,
          "code": "mm[Hg]",
          "unit": "mm[Hg]"
        },
        "text": {
          "status": "generated",
          "div": "<div xmlns=\"http://www.w3.org/1999/xhtml\"><table class=\"hl7__ips\"><tr><th>Vital Sign</th><th>Date</th><th>Measurement</th></tr><tr><td>Systolic Blood Pressure</td><td>16-Apr-2025</td><td>96 mm[Hg]</td></tr></table></div>"
        },
        "status": "final",
        "code": {
          "coding": [
            {
              "code": "8480-6",
              "system": "http://loinc.org",
              "display": "Systolic Blood Pressure"
            }
          ]
        },
        "subject": {
          "reference": "urn:uuid:8937331a-26c4-4a3f-84a5-b91f54639fd4",
          "display": "Miroslava Staňková"
        },
        "effectiveDateTime": "2025-04-16"
      }
    },
    {
      "fullUrl": "urn:uuid:01165442-6f82-4ebd-9d6b-3e34a0125431",
      "resource": {
        "resourceType": "Observation",
        "id": "01165442-6f82-4ebd-9d6b-3e34a0125431",
        "meta": {
          "profile": [
            "http://hl7.org/fhir/StructureDefinition/vitalsigns"
          ]
        },
        "category": [
          {
            "coding": [
              {
                "system": "http://terminology.hl7.org/CodeSystem/observation-category",
                "code": "vital-signs",
                "display": "Vital Signs"
              }
            ]
          }
        ],
        "valueQuantity": {
          "value": 69,
          "code": "/min",
          "unit": "/min"
        },
        "text": {
          "status": "generated",
          "div": "<div xmlns=\"http://www.w3.org/1999/xhtml\"><table class=\"hl7__ips\"><tr><th>Vital Sign</th><th>Date</th><th>Measurement</th></tr><tr><td>Heart rate</td><td>16-Apr-2025</td><td>69 /min</td></tr></table></div>"
        },
        "status": "final",
        "code": {
          "coding": [
            {
              "code": "8867-4",
              "system": "http://loinc.org",
              "display": "Heart rate"
            }
          ]
        },
        "subject": {
          "reference": "urn:uuid:8937331a-26c4-4a3f-84a5-b91f54639fd4",
          "display": "Miroslava Staňková"
        },
        "effectiveDateTime": "2025-04-16"
      }
    },
    {
      "fullUrl": "urn:uuid:5bd5644d-343a-4b1d-88ca-6f0ca81cb439",
      "resource": {
        "resourceType": "Observation",
        "id": "5bd5644d-343a-4b1d-88ca-6f0ca81cb439",
        "meta": {
          "profile": [
            "http://hl7.org/fhir/StructureDefinition/vitalsigns"
          ]
        },
        "category": [
          {
            "coding": [
              {
                "system": "http://terminology.hl7.org/CodeSystem/observation-category",
                "code": "vital-signs",
                "display": "Vital Signs"
              }
            ]
          }
        ],
        "valueQuantity": {
          "value": 15,
          "code": "/min",
          "unit": "/min"
        },
        "text": {
          "status": "generated",
          "div": "<div xmlns=\"http://www.w3.org/1999/xhtml\"><table class=\"hl7__ips\"><tr><th>Vital Sign</th><th>Date</th><th>Measurement</th></tr><tr><td>Respiratory rate</td><td>16-Apr-2025</td><td>15 /min</td></tr></table></div>"
        },
        "status": "final",
        "code": {
          "coding": [
            {
              "code": "9279-1",
              "system": "http://loinc.org",
              "display": "Respiratory rate"
            }
          ]
        },
        "subject": {
          "reference": "urn:uuid:8937331a-26c4-4a3f-84a5-b91f54639fd4",
          "display": "Miroslava Staňková"
        },
        "effectiveDateTime": "2025-04-16"
      }
    },
    {
      "fullUrl": "urn:uuid:7baea1f1-4ab4-4b36-b986-da74502ce945",
      "resource": {
        "resourceType": "Observation",
        "id": "7baea1f1-4ab4-4b36-b986-da74502ce945",
        "meta": {
          "profile": [
            "http://hl7.org/fhir/StructureDefinition/vitalsigns"
          ]
        },
        "category": [
          {
            "coding": [
              {
                "system": "http://terminology.hl7.org/CodeSystem/observation-category",
                "code": "vital-signs",
                "display": "Vital Signs"
              }
            ]
          }
        ],
        "valueQuantity": {
          "value": 151.1,
          "code": "cm",
          "unit": "cm"
        },
        "text": {
          "status": "generated",
          "div": "<div xmlns=\"http://www.w3.org/1999/xhtml\"><table class=\"hl7__ips\"><tr><th>Vital Sign</th><th>Date</th><th>Measurement</th></tr><tr><td>Body Height</td><td>10-Apr-2024</td><td>151.1 cm</td></tr></table></div>"
        },
        "status": "final",
        "code": {
          "coding": [
            {
              "code": "8302-2",
              "system": "http://loinc.org",
              "display": "Body Height"
            }
          ]
        },
        "subject": {
          "reference": "urn:uuid:8937331a-26c4-4a3f-84a5-b91f54639fd4",
          "display": "Miroslava Staňková"
        },
        "effectiveDateTime": "2024-04-10"
      }
    },
    {
      "fullUrl": "urn:uuid:bf849c2b-fbdf-4df4-a17f-cd5c91dee8d8",
      "resource": {
        "resourceType": "Observation",
        "id": "bf849c2b-fbdf-4df4-a17f-cd5c91dee8d8",
        "meta": {
          "profile": [
            "http://hl7.org/fhir/StructureDefinition/vitalsigns"
          ]
        },
        "category": [
          {
            "coding": [
              {
                "system": "http://terminology.hl7.org/CodeSystem/observation-category",
                "code": "vital-signs",
                "display": "Vital Signs"
              }
            ]
          }
        ],
        "valueQuantity": {
          "value": 1,
          "code": "{score}",
          "unit": "{score}"
        },
        "text": {
          "status": "generated",
          "div": "<div xmlns=\"http://www.w3.org/1999/xhtml\"><table class=\"hl7__ips\"><tr><th>Vital Sign</th><th>Date</th><th>Measurement</th></tr><tr><td>Pain severity - 0-10 verbal numeric rating [Score] - Reported</td><td>10-Apr-2024</td><td>1 {score}</td></tr></table></div>"
        },
        "status": "final",
        "code": {
          "coding": [
            {
              "code": "72514-3",
              "system": "http://loinc.org",
              "display": "Pain severity - 0-10 verbal numeric rating [Score] - Reported"
            }
          ]
        },
        "subject": {
          "reference": "urn:uuid:8937331a-26c4-4a3f-84a5-b91f54639fd4",
          "display": "Miroslava Staňková"
        },
        "effectiveDateTime": "2024-04-10"
      }
    },
    {
      "fullUrl": "urn:uuid:a082532d-06e1-4760-ac7e-1d5b4771ae40",
      "resource": {
        "resourceType": "Observation",
        "id": "a082532d-06e1-4760-ac7e-1d5b4771ae40",
        "meta": {
          "profile": [
            "http://hl7.org/fhir/StructureDefinition/vitalsigns"
          ]
        },
        "category": [
          {
            "coding": [
              {
                "system": "http://terminology.hl7.org/CodeSystem/observation-category",
                "code": "vital-signs",
                "display": "Vital Signs"
              }
            ]
          }
        ],
        "valueQuantity": {
          "value": 65.8,
          "code": "kg",
          "unit": "kg"
        },
        "text": {
          "status": "generated",
          "div": "<div xmlns=\"http://www.w3.org/1999/xhtml\"><table class=\"hl7__ips\"><tr><th>Vital Sign</th><th>Date</th><th>Measurement</th></tr><tr><td>Body Weight</td><td>10-Apr-2024</td><td>65.8 kg</td></tr></table></div>"
        },
        "status": "final",
        "code": {
          "coding": [
            {
              "code": "29463-7",
              "system": "http://loinc.org",
              "display": "Body Weight"
            }
          ]
        },
        "subject": {
          "reference": "urn:uuid:8937331a-26c4-4a3f-84a5-b91f54639fd4",
          "display": "Miroslava Staňková"
        },
        "effectiveDateTime": "2024-04-10"
      }
    },
    {
      "fullUrl": "urn:uuid:fb2c2b44-efc1-4de9-bab8-cecf3fc9b4c9",
      "resource": {
        "resourceType": "Observation",
        "id": "fb2c2b44-efc1-4de9-bab8-cecf3fc9b4c9",
        "meta": {
          "profile": [
            "http://hl7.org/fhir/StructureDefinition/vitalsigns"
          ]
        },
        "category": [
          {
            "coding": [
              {
                "system": "http://terminology.hl7.org/CodeSystem/observation-category",
                "code": "vital-signs",
                "display": "Vital Signs"
              }
            ]
          }
        ],
        "valueQuantity": {
          "value": 28.8,
          "code": "kg/m2",
          "unit": "kg/m2"
        },
        "text": {
          "status": "generated",
          "div": "<div xmlns=\"http://www.w3.org/1999/xhtml\"><table class=\"hl7__ips\"><tr><th>Vital Sign</th><th>Date</th><th>Measurement</th></tr><tr><td>Body mass index (BMI) [Ratio]</td><td>10-Apr-2024</td><td>28.8 kg/m2</td></tr></table></div>"
        },
        "status": "final",
        "code": {
          "coding": [
            {
              "code": "39156-5",
              "system": "http://loinc.org",
              "display": "Body mass index (BMI) [Ratio]"
            }
          ]
        },
        "subject": {
          "reference": "urn:uuid:8937331a-26c4-4a3f-84a5-b91f54639fd4",
          "display": "Miroslava Staňková"
        },
        "effectiveDateTime": "2024-04-10"
      }
    },
    {
      "fullUrl": "urn:uuid:a22bb851-5822-48ee-805a-0908a4b84065",
      "resource": {
        "resourceType": "Observation",
        "id": "a22bb851-5822-48ee-805a-0908a4b84065",
        "meta": {
          "profile": [
            "http://hl7.org/fhir/StructureDefinition/vitalsigns"
          ]
        },
        "category": [
          {
            "coding": [
              {
                "system": "http://terminology.hl7.org/CodeSystem/observation-category",
                "code": "vital-signs",
                "display": "Vital Signs"
              }
            ]
          }
        ],
        "valueQuantity": {
          "value": 64,
          "code": "mm[Hg]",
          "unit": "mm[Hg]"
        },
        "text": {
          "status": "generated",
          "div": "<div xmlns=\"http://www.w3.org/1999/xhtml\"><table class=\"hl7__ips\"><tr><th>Vital Sign</th><th>Date</th><th>Measurement</th></tr><tr><td>Diastolic Blood Pressure</td><td>10-Apr-2024</td><td>64 mm[Hg]</td></tr></table></div>"
        },
        "status": "final",
        "code": {
          "coding": [
            {
              "code": "8462-4",
              "system": "http://loinc.org",
              "display": "Diastolic Blood Pressure"
            }
          ]
        },
        "subject": {
          "reference": "urn:uuid:8937331a-26c4-4a3f-84a5-b91f54639fd4",
          "display": "Miroslava Staňková"
        },
        "effectiveDateTime": "2024-04-10"
      }
    },
    {
      "fullUrl": "urn:uuid:77b7ec7b-c607-443a-a45a-5ea980585291",
      "resource": {
        "resourceType": "Observation",
        "id": "77b7ec7b-c607-443a-a45a-5ea980585291",
        "meta": {
          "profile": [
            "http://hl7.org/fhir/StructureDefinition/vitalsigns"
          ]
        },
        "category": [
          {
            "coding": [
              {
                "system": "http://terminology.hl7.org/CodeSystem/observation-category",
                "code": "vital-signs",
                "display": "Vital Signs"
              }
            ]
          }
        ],
        "valueQuantity": {
          "value": 93,
          "code": "mm[Hg]",
          "unit": "mm[Hg]"
        },
        "text": {
          "status": "generated",
          "div": "<div xmlns=\"http://www.w3.org/1999/xhtml\"><table class=\"hl7__ips\"><tr><th>Vital Sign</th><th>Date</th><th>Measurement</th></tr><tr><td>Systolic Blood Pressure</td><td>10-Apr-2024</td><td>93 mm[Hg]</td></tr></table></div>"
        },
        "status": "final",
        "code": {
          "coding": [
            {
              "code": "8480-6",
              "system": "http://loinc.org",
              "display": "Systolic Blood Pressure"
            }
          ]
        },
        "subject": {
          "reference": "urn:uuid:8937331a-26c4-4a3f-84a5-b91f54639fd4",
          "display": "Miroslava Staňková"
        },
        "effectiveDateTime": "2024-04-10"
      }
    },
    {
      "fullUrl": "urn:uuid:fb6a1e4e-b855-4956-9b73-694d6b34c88d",
      "resource": {
        "resourceType": "Observation",
        "id": "fb6a1e4e-b855-4956-9b73-694d6b34c88d",
        "meta": {
          "profile": [
            "http://hl7.org/fhir/StructureDefinition/vitalsigns"
          ]
        },
        "category": [
          {
            "coding": [
              {
                "system": "http://terminology.hl7.org/CodeSystem/observation-category",
                "code": "vital-signs",
                "display": "Vital Signs"
              }
            ]
          }
        ],
        "valueQuantity": {
          "value": 69,
          "code": "/min",
          "unit": "/min"
        },
        "text": {
          "status": "generated",
          "div": "<div xmlns=\"http://www.w3.org/1999/xhtml\"><table class=\"hl7__ips\"><tr><th>Vital Sign</th><th>Date</th><th>Measurement</th></tr><tr><td>Heart rate</td><td>10-Apr-2024</td><td>69 /min</td></tr></table></div>"
        },
        "status": "final",
        "code": {
          "coding": [
            {
              "code": "8867-4",
              "system": "http://loinc.org",
              "display": "Heart rate"
            }
          ]
        },
        "subject": {
          "reference": "urn:uuid:8937331a-26c4-4a3f-84a5-b91f54639fd4",
          "display": "Miroslava Staňková"
        },
        "effectiveDateTime": "2024-04-10"
      }
    },
    {
      "fullUrl": "urn:uuid:8952c463-1f0a-42c9-ad55-9fe0857042c0",
      "resource": {
        "resourceType": "Observation",
        "id": "8952c463-1f0a-42c9-ad55-9fe0857042c0",
        "meta": {
          "profile": [
            "http://hl7.org/fhir/StructureDefinition/vitalsigns"
          ]
        },
        "category": [
          {
            "coding": [
              {
                "system": "http://terminology.hl7.org/CodeSystem/observation-category",
                "code": "vital-signs",
                "display": "Vital Signs"
              }
            ]
          }
        ],
        "valueQuantity": {
          "value": 14,
          "code": "/min",
          "unit": "/min"
        },
        "text": {
          "status": "generated",
          "div": "<div xmlns=\"http://www.w3.org/1999/xhtml\"><table class=\"hl7__ips\"><tr><th>Vital Sign</th><th>Date</th><th>Measurement</th></tr><tr><td>Respiratory rate</td><td>10-Apr-2024</td><td>14 /min</td></tr></table></div>"
        },
        "status": "final",
        "code": {
          "coding": [
            {
              "code": "9279-1",
              "system": "http://loinc.org",
              "display": "Respiratory rate"
            }
          ]
        },
        "subject": {
          "reference": "urn:uuid:8937331a-26c4-4a3f-84a5-b91f54639fd4",
          "display": "Miroslava Staňková"
        },
        "effectiveDateTime": "2024-04-10"
      }
    },
    {
      "fullUrl": "urn:uuid:ad5873ab-55b3-40a5-8074-d6fbbdbd137f",
      "resource": {
        "resourceType": "Observation",
        "id": "ad5873ab-55b3-40a5-8074-d6fbbdbd137f",
        "meta": {
          "profile": [
            "http://hl7.eu/fhir/laboratory/StructureDefinition/Observation-resultslab-eu-lab"
          ]
        },
        "performer": [
          {
            "display": "The Central European Lab"
          }
        ],
        "category": [
          {
            "coding": [
              {
                "system": "http://terminology.hl7.org/CodeSystem/observation-category",
                "code": "laboratory"
              }
            ]
          }
        ],
        "code": {
          "coding": [
            {
              "code": "2093-3",
              "system": "http://loinc.org",
              "display": "Cholesterol [Mass/volume] in Serum or Plasma"
            }
          ],
          "text": "Cholesterol [Mass/volume] in Serum or Plasma"
        },
        "valueQuantity": {
          "system": "http://unitsofmeasure.org",
          "value": 168.2,
          "unit": "mg/dL",
          "code": "mg/dL"
        },
        "referenceRange": [
          {
            "low": {
              "value": 125,
              "code": "mg/dL",
              "system": "http://unitsofmeasure.org"
            }
          },
          {
            "high": {
              "value": 200,
              "code": "mg/dL",
              "system": "http://unitsofmeasure.org"
            }
          }
        ],
        "text": {
          "status": "generated",
          "div": "<div xmlns=\"http://www.w3.org/1999/xhtml\"><table class=\"hl7__eu__lab__report\"><tr><th>Test</th><th>10-Apr-2024</th><th>Reference&#xA0;Range</th><th>Unit</th></tr><tr><td>Cholesterol [Mass/volume] in Serum or Plasma</td><td>168.2</td><td>125 - 200</td><td></td><td>mg/dL</td></tr></table></div>"
        },
        "status": "final",
        "subject": {
          "reference": "urn:uuid:8937331a-26c4-4a3f-84a5-b91f54639fd4",
          "display": "Miroslava Staňková"
        },
        "effectiveDateTime": "2024-04-10T21:34:25Z"
      }
    },
    {
      "fullUrl": "urn:uuid:988f7305-2a2d-49fa-a333-b6c9739b0ffa",
      "resource": {
        "resourceType": "Observation",
        "id": "988f7305-2a2d-49fa-a333-b6c9739b0ffa",
        "meta": {
          "profile": [
            "http://hl7.eu/fhir/laboratory/StructureDefinition/Observation-resultslab-eu-lab"
          ]
        },
        "performer": [
          {
            "display": "The Central European Lab"
          }
        ],
        "category": [
          {
            "coding": [
              {
                "system": "http://terminology.hl7.org/CodeSystem/observation-category",
                "code": "laboratory"
              }
            ]
          }
        ],
        "code": {
          "coding": [
            {
              "code": "2571-8",
              "system": "http://loinc.org",
              "display": "Triglyceride [Mass/volume] in Serum or Plasma"
            }
          ],
          "text": "Triglyceride [Mass/volume] in Serum or Plasma"
        },
        "valueQuantity": {
          "system": "http://unitsofmeasure.org",
          "value": 125.4,
          "unit": "mg/dL",
          "code": "mg/dL"
        },
        "referenceRange": [
          {
            "low": {
              "value": 35,
              "code": "mg/dL",
              "system": "http://unitsofmeasure.org"
            }
          },
          {
            "high": {
              "value": 150,
              "code": "mg/dL",
              "system": "http://unitsofmeasure.org"
            }
          }
        ],
        "text": {
          "status": "generated",
          "div": "<div xmlns=\"http://www.w3.org/1999/xhtml\"><table class=\"hl7__eu__lab__report\"><tr><th>Test</th><th>10-Apr-2024</th><th>Reference&#xA0;Range</th><th>Unit</th></tr><tr><td>Triglyceride [Mass/volume] in Serum or Plasma</td><td>125.4</td><td>35 - 150</td><td></td><td>mg/dL</td></tr></table></div>"
        },
        "status": "final",
        "subject": {
          "reference": "urn:uuid:8937331a-26c4-4a3f-84a5-b91f54639fd4",
          "display": "Miroslava Staňková"
        },
        "effectiveDateTime": "2024-04-10T21:34:25Z"
      }
    },
    {
      "fullUrl": "urn:uuid:f1f418cd-154e-4a0b-993c-35478c25fa6c",
      "resource": {
        "resourceType": "Observation",
        "id": "f1f418cd-154e-4a0b-993c-35478c25fa6c",
        "meta": {
          "profile": [
            "http://hl7.eu/fhir/laboratory/StructureDefinition/Observation-resultslab-eu-lab"
          ]
        },
        "performer": [
          {
            "display": "The Central European Lab"
          }
        ],
        "category": [
          {
            "coding": [
              {
                "system": "http://terminology.hl7.org/CodeSystem/observation-category",
                "code": "laboratory"
              }
            ]
          }
        ],
        "code": {
          "coding": [
            {
              "code": "18262-6",
              "system": "http://loinc.org",
              "display": "Cholesterol in LDL [Mass/volume] in Serum or Plasma by Direct assay"
            }
          ],
          "text": "Cholesterol in LDL [Mass/volume] in Serum or Plasma by Direct assay"
        },
        "valueQuantity": {
          "system": "http://unitsofmeasure.org",
          "value": 110.3,
          "unit": "mg/dL",
          "code": "mg/dL"
        },
        "referenceRange": [
          {
            "low": {
              "value": 0,
              "code": "mg/dL",
              "system": "http://unitsofmeasure.org"
            }
          },
          {
            "high": {
              "value": 130,
              "code": "mg/dL",
              "system": "http://unitsofmeasure.org"
            }
          }
        ],
        "text": {
          "status": "generated",
          "div": "<div xmlns=\"http://www.w3.org/1999/xhtml\"><table class=\"hl7__eu__lab__report\"><tr><th>Test</th><th>10-Apr-2024</th><th>Reference&#xA0;Range</th><th>Unit</th></tr><tr><td>Cholesterol in LDL [Mass/volume] in Serum or Plasma by Direct assay</td><td>110.3</td><td>0 - 130</td><td></td><td>mg/dL</td></tr></table></div>"
        },
        "status": "final",
        "subject": {
          "reference": "urn:uuid:8937331a-26c4-4a3f-84a5-b91f54639fd4",
          "display": "Miroslava Staňková"
        },
        "effectiveDateTime": "2024-04-10T21:34:25Z"
      }
    },
    {
      "fullUrl": "urn:uuid:dcdd0356-dfe1-4c31-94c5-399a6a26c835",
      "resource": {
        "resourceType": "Observation",
        "id": "dcdd0356-dfe1-4c31-94c5-399a6a26c835",
        "meta": {
          "profile": [
            "http://hl7.eu/fhir/laboratory/StructureDefinition/Observation-resultslab-eu-lab"
          ]
        },
        "performer": [
          {
            "display": "The Central European Lab"
          }
        ],
        "category": [
          {
            "coding": [
              {
                "system": "http://terminology.hl7.org/CodeSystem/observation-category",
                "code": "laboratory"
              }
            ]
          }
        ],
        "code": {
          "coding": [
            {
              "code": "2085-9",
              "system": "http://loinc.org",
              "display": "Cholesterol in HDL [Mass/volume] in Serum or Plasma"
            }
          ],
          "text": "Cholesterol in HDL [Mass/volume] in Serum or Plasma"
        },
        "valueQuantity": {
          "system": "http://unitsofmeasure.org",
          "value": 32.8,
          "unit": "mg/dL",
          "code": "mg/dL"
        },
        "referenceRange": [
          {
            "low": {
              "value": 40,
              "code": "mg/dL",
              "system": "http://unitsofmeasure.org"
            }
          },
          {
            "high": {
              "value": 100,
              "code": "mg/dL",
              "system": "http://unitsofmeasure.org"
            }
          }
        ],
        "interpretation": [
          {
            "coding": [
              {
                "code": "L",
                "system": "http://terminology.hl7.org/CodeSystem/v3-ObservationInterpretation",
                "display": "Low"
              }
            ]
          }
        ],
        "text": {
          "status": "generated",
          "div": "<div xmlns=\"http://www.w3.org/1999/xhtml\"><table class=\"hl7__eu__lab__report\"><tr><th>Test</th><th>10-Apr-2024</th><th>Reference&#xA0;Range</th><th>Unit</th></tr><tr><td>Cholesterol in HDL [Mass/volume] in Serum or Plasma</td><td>32.8</td><td>40 - 100</td><td>L</td><td>mg/dL</td></tr></table></div>"
        },
        "status": "final",
        "subject": {
          "reference": "urn:uuid:8937331a-26c4-4a3f-84a5-b91f54639fd4",
          "display": "Miroslava Staňková"
        },
        "effectiveDateTime": "2024-04-10T21:34:25Z"
      }
    },
    {
      "fullUrl": "urn:uuid:6f59d441-8a92-42b9-9a3e-d35c84ed822c",
      "resource": {
        "resourceType": "Device",
        "id": "6f59d441-8a92-42b9-9a3e-d35c84ed822c",
        "deviceName": [
          {
            "name": "SYNDERAI Synthetic Generator",
            "type": "manufacturer-name"
          }
        ],
        "version": [
          {
            "value": "5.0"
          }
        ],
        "text": {
          "status": "generated",
          "div": "<div xmlns=\"http://www.w3.org/1999/xhtml\">SYNDERAI Synthetic Generator v5.0</div>"
        },
        "status": "active",
        "distinctIdentifier": "synderai-generator-50",
        "manufacturer": "SYNDERAI Project"
      }
    },
    {
      "fullUrl": "urn:uuid:b9e1d6c8-9929-474c-ab39-92d5dafcd1f7",
      "resource": {
        "resourceType": "Provenance",
        "id": "b9e1d6c8-9929-474c-ab39-92d5dafcd1f7",
        "target": [
          {
            "reference": "Patient/8937331a-26c4-4a3f-84a5-b91f54639fd4"
          },
          {
            "reference": "Bundle/04512115-f62e-4923-96da-d1d5ddd31d6d"
          },
          {
            "reference": "Composition/6725bb9a-e065-47fb-a029-6b3f473d21f7"
          },
          {
            "reference": "PractitionerRole/970d9c2b-cbe3-46ae-b772-d53518a75068"
          },
          {
            "reference": "Organization/697b7ff2-26d7-4929-8391-f51844e8af84"
          },
          {
            "reference": "Practitioner/4d8f0106-21a1-485d-9288-932624dc9bad"
          }
        ],
        "activity": {
          "text": "Synthetic Example Data Generation"
        },
        "policy": [
          "https://synderai.net/synderai-synthetic-data-policy"
        ],
        "agent": [
          {
            "type": {
              "text": "author"
            },
            "who": {
              "reference": "Device/6f59d441-8a92-42b9-9a3e-d35c84ed822c"
            }
          }
        ],
        "reason": [
          {
            "text": "Interoperability Testing and Training (non-clinical use)"
          }
        ],
        "text": {
          "status": "generated",
          "div": "<div xmlns=\"http://www.w3.org/1999/xhtml\">Provenance for SYNDERAI Synthetic Example Data Resource</div>"
        },
        "recorded": "2024-04-10T21:34:25Z"
      }
    }
  ],
  "type": "document",
  "timestamp": "2024-04-10T21:34:25Z"
}
