{
  "resourceType": "Bundle",
  "id": "da30bcf0-8779-4261-a0fa-1545bb664231",
  "meta": {
    "profile": [
      "http://hl7.eu/fhir/eps/StructureDefinition/bundle-eu-eps"
    ]
  },
  "identifier": {
    "assigner": {
      "display": "HL7 Europe"
    },
    "system": "urn:oid:2.16.840.1.113883.2.51.999",
    "value": "e4acd4e6-ec9d-43bb-a562-9a4d401540dc"
  },
  "entry": [
    {
      "fullUrl": "urn:uuid:69e79d48-eee5-426f-8d3d-1f081c36e7fc",
      "resource": {
        "resourceType": "Composition",
        "id": "69e79d48-eee5-426f-8d3d-1f081c36e7fc",
        "meta": {
          "security": [
            {
              "system": "http://terminology.hl7.org/CodeSystem/v3-ActReason",
              "code": "HTEST"
            },
            {
              "system": "http://terminology.hl7.org/CodeSystem/v3-ActReason",
              "code": "TRAIN"
            }
          ],
          "tag": [
            {
              "system": "https://synderai.net/fhir/CodeSystem/tags",
              "code": "synthetic",
              "display": "SYNDERAI Synthetic data"
            }
          ],
          "profile": [
            "http://hl7.eu/fhir/eps/StructureDefinition/composition-eu-eps"
          ]
        },
        "identifier": {
          "assigner": {
            "display": "HL7 Europe"
          },
          "system": "urn:oid:2.16.840.1.113883.2.51.999",
          "value": "a314ecd1-d379-4886-ac69-855d20ed2757"
        },
        "type": {
          "coding": [
            {
              "code": "60591-5",
              "system": "http://loinc.org",
              "display": "Patient summary Document"
            }
          ],
          "text": "Patient summary Document"
        },
        "author": [
          {
            "reference": "urn:uuid:233ec99e-1db1-48e1-9bc1-7595ed43586d"
          }
        ],
        "section": [
          {
            "text": {
              "status": "generated",
              "div": "<div xmlns=\"http://www.w3.org/1999/xhtml\"><table class=\"hl7__ips\"><tr><th>Condition</th><th>Onset Date</th><th>Status</th></tr><tr><td>Osteoporosis</td><td><span class=\"nb\">04-Feb-2019</span></td><td>active</td></tr><tr><td>Alzheimer's disease</td><td><span class=\"nb\">17-Oct-2014</span></td><td>active</td></tr><tr><td>Dependent drug abuse</td><td><span class=\"nb\">27-Apr-2014</span></td><td>active</td></tr><tr><td>Acute ST segment elevation myocardial infarction</td><td><span class=\"nb\">17-May-2011</span></td><td>active</td></tr><tr><td>Chronic kidney disease stage 2</td><td><span class=\"nb\">15-Sep-2007</span></td><td>active</td></tr><tr><td>Microalbuminuria due to type 2 diabetes mellitus</td><td><span class=\"nb\">15-Sep-2007</span></td><td>active</td></tr><tr><td>Disorder of kidney due to diabetes mellitus</td><td><span class=\"nb\">24-Nov-2001</span></td><td>active</td></tr><tr><td>Chronic kidney disease stage 1</td><td><span class=\"nb\">24-Nov-2001</span></td><td>active</td></tr><tr><td>Hyperglycemia</td><td><span class=\"nb\">09-Nov-1996</span></td><td>active</td></tr><tr><td>Ischemic heart disease</td><td><span class=\"nb\">06-Oct-1990</span></td><td>active</td></tr><tr><td>Metabolic syndrome X</td><td><span class=\"nb\">13-Sep-1986</span></td><td>active</td></tr><tr><td>Hypertriglyceridemia</td><td><span class=\"nb\">13-Sep-1986</span></td><td>active</td></tr><tr><td>Type 2 diabetes mellitus</td><td><span class=\"nb\">07-Sep-1985</span></td><td>active</td></tr><tr><td>Anemia</td><td><span class=\"nb\">21-May-1966</span></td><td>active</td></tr><tr><td>Prediabetes</td><td><span class=\"nb\">28-Apr-1962</span></td><td>active</td></tr><tr><td>Essential hypertension</td><td><span class=\"nb\">05-Apr-1958</span></td><td>active</td></tr></table></div>"
            },
            "entry": [
              {
                "reference": "urn:uuid:e7fd6982-31db-4168-b667-8a47f648af50"
              }
            ],
            "code": {
              "coding": [
                {
                  "system": "http://loinc.org",
                  "code": "11450-4",
                  "display": "Problem list - Reported"
                }
              ]
            },
            "title": "Problem list"
          },
          {
            "text": {
              "status": "generated",
              "div": "<div xmlns=\"http://www.w3.org/1999/xhtml\"><table class=\"hl7__ips\"><tr><td>No known medications</td></tr></table></div>"
            },
            "entry": [
              {
                "reference": "urn:uuid:6f5f61ea-277f-44e1-b6d7-0afb22b092d3"
              }
            ],
            "code": {
              "coding": [
                {
                  "system": "http://loinc.org",
                  "code": "10160-0",
                  "display": "History of Medication use Narrative"
                }
              ]
            },
            "title": "Medication list"
          },
          {
            "text": {
              "status": "generated",
              "div": "<div xmlns=\"http://www.w3.org/1999/xhtml\"><table class=\"hl7__ips\"><tr><th>Vaccine</th><th>Date</th></tr><tr><td>Influenza virus antigen only vaccine product</td><td><span class=\"nb\">17-Aug-2024</span></td></tr><tr><td>SARS-CoV-2 mRNA vaccine</td><td><span class=\"nb\">08-May-2021</span></td></tr><tr><td>Clostridium tetani toxoid antigen adsorbed only vaccine product</td><td><span class=\"nb\">08-Feb-2020</span></td></tr></table></div>"
            },
            "entry": [
              {
                "reference": "urn:uuid:cc6b3c78-013d-4419-ad10-364d49cc86ee"
              }
            ],
            "code": {
              "coding": [
                {
                  "system": "http://loinc.org",
                  "code": "11369-6",
                  "display": "History of Immunization note"
                }
              ]
            },
            "title": "Immunizations list"
          },
          {
            "text": {
              "status": "generated",
              "div": "<div xmlns=\"http://www.w3.org/1999/xhtml\"><table class=\"hl7__ips\"><tr><th>Procedure</th><th>Date</th><th>Reason</th></tr><tr><td>Medication reconciliation</td><td><span class=\"nb\">05-Jul-2025</span></td><td>-</td></tr><tr><td>Assessment of health and social care needs</td><td><span class=\"nb\">05-Jul-2025</span></td><td>-</td></tr><tr><td>Assessment using Morse Fall Scale</td><td><span class=\"nb\">05-Jul-2025</span></td><td>-</td></tr><tr><td>Screening for domestic abuse</td><td><span class=\"nb\">08-Mar-2025</span></td><td>-</td></tr><tr><td>Depression screening</td><td><span class=\"nb\">08-Feb-2025</span></td><td>-</td></tr><tr><td>Assessment of anxiety</td><td><span class=\"nb\">08-Feb-2025</span></td><td>-</td></tr><tr><td>Depression screening using Patient Health Questionnaire Two-Item score (procedure)</td><td><span class=\"nb\">08-Feb-2025</span></td><td>-</td></tr><tr><td>Patient discharge</td><td><span class=\"nb\">24-Mar-2024</span></td><td>-</td></tr><tr><td>Hospice care</td><td><span class=\"nb\">23-Mar-2024</span></td><td>-</td></tr><tr><td>Notifications</td><td><span class=\"nb\">10-Feb-2024</span></td><td>-</td></tr><tr><td>Certification procedure</td><td><span class=\"nb\">10-Feb-2024</span></td><td>-</td></tr><tr><td>Initial patient assessment</td><td><span class=\"nb\">10-Feb-2024</span></td><td>-</td></tr><tr><td>Development of individualized plan of care</td><td><span class=\"nb\">10-Feb-2024</span></td><td>-</td></tr><tr><td>Depression screening using PHQ-9 (Patient Health Questionnaire 9) score</td><td><span class=\"nb\">30-Apr-2022</span></td><td>-</td></tr><tr><td>Pre-discharge assessment</td><td><span class=\"nb\">15-Aug-2021</span></td><td>-</td></tr><tr><td>Discharge from skilled nursing facility (procedure)</td><td><span class=\"nb\">15-Aug-2021</span></td><td>-</td></tr><tr><td>Occupational therapy</td><td><span class=\"nb\">14-Aug-2021</span></td><td>-</td></tr><tr><td>Nursing care/supplementary surveillance</td><td><span class=\"nb\">14-Aug-2021</span></td><td>-</td></tr><tr><td>Physical therapy procedure</td><td><span class=\"nb\">13-Aug-2021</span></td><td>-</td></tr><tr><td>Professional / ancillary services care</td><td><span class=\"nb\">12-Aug-2021</span></td><td>-</td></tr><tr><td>Care regimes assessment</td><td><span class=\"nb\">26-Jul-2021</span></td><td>-</td></tr><tr><td>Radiography of humerus</td><td><span class=\"nb\">24-Jul-2021</span></td><td>-</td></tr><tr><td>History AND physical examination</td><td><span class=\"nb\">24-Jul-2021</span></td><td>-</td></tr><tr><td>Bone immobilization</td><td><span class=\"nb\">24-Jul-2021</span></td><td>Fracture of forearm</td></tr><tr><td>Bone density scan</td><td><span class=\"nb\">31-Mar-2018</span></td><td>Fracture of forearm</td></tr></table></div>"
            },
            "entry": [
              {
                "reference": "urn:uuid:6e8f9807-1188-44ef-aa02-8162572af420"
              }
            ],
            "code": {
              "coding": [
                {
                  "system": "http://loinc.org",
                  "code": "47519-4",
                  "display": "History of Procedures Document"
                }
              ]
            },
            "title": "Procedure History list"
          },
          {
            "text": {
              "status": "generated",
              "div": "<div xmlns=\"http://www.w3.org/1999/xhtml\"><table class=\"hl7__ips\"><tr><th>Allergy/Intolerance</th><th>Onset Date</th><th>Status</th><th>Type</th><th>Reaction</th></tr><tr><td>Inadequate digital access affecting health care</td><td><span class=\"nb\">2025-12-11</span></td><td>active</td><td>environment</td><td></td></tr></table></div>"
            },
            "entry": [
              {
                "reference": "urn:uuid:e861a62f-6da7-4d9d-b0a8-b7018cd7070b"
              }
            ],
            "code": {
              "coding": [
                {
                  "system": "http://loinc.org",
                  "code": "48765-2",
                  "display": "Allergies and adverse reactions Document"
                }
              ]
            },
            "title": "Allergies and Intolerances"
          },
          {
            "text": {
              "status": "generated",
              "div": "<div xmlns=\"http://www.w3.org/1999/xhtml\"><table class=\"hl7__ips\"><tr><th>Active Planned Care / Goals</th><th>Start Date</th><th>Reason</th></tr><tr><td>Dementia management</td><td><span class=\"nb\">17-Oct-2014</span></td><td>Alzheimer's disease (disorder)</td></tr><tr><td><ul><li>Maintain or slow decline in cognitive function as measured by MMSE.</li><li>Preserve ability to perform basic activities of daily living (ADLs) as measured by Barthel Index.</li><li>Reduce frequency and severity of behavioral and psychological symptoms as measured by NPI.</li><li>Achieve at least 80% adherence to prescribed dementia medication regimen.</li></ul></td><td></td><td></td></tr><tr><td>Care plan</td><td><span class=\"nb\">02-Mar-2014</span></td><td>-</td></tr><tr><td>Discharge care plan</td><td><span class=\"nb\">17-May-2011</span></td><td>-</td></tr><tr><td>Diabetes self management plan</td><td><span class=\"nb\">28-Apr-1962</span></td><td>Prediabetes</td></tr><tr><td><ul><li>Patient will implement and maintain a diabetes self-management plan including diet, exercise, and medication adherence to optimize glycemic control.</li><li>Achieve and maintain HbA1c below 7.0% as part of diabetes self-management.</li><li>Maintain fasting blood glucose between 80 and 130 mg/dL.</li><li>Maintain blood pressure below 140/90 mmHg as part of diabetes self-management.</li><li>Maintain LDL cholesterol below 100 mg/dL as part of diabetes self-management.</li></ul></td><td></td><td></td></tr><tr><td>Lifestyle education regarding hypertension</td><td><span class=\"nb\">05-Apr-1958</span></td><td>Essential hypertension (disorder)</td></tr><tr><td><ul><li>Achieve and maintain systolic blood pressure below 130 mm[Hg] through lifestyle modification.</li><li>Achieve and maintain diastolic blood pressure below 80 mm[Hg] through lifestyle modification.</li><li>Reduce dietary sodium intake to less than 2.3 grams per day as part of hypertension management.</li><li>Engage in at least 150 minutes of moderate-intensity aerobic physical activity per week to help control blood pressure.</li></ul></td><td></td><td></td></tr><tr><th>Immunization Recommendation</th><th>Due Date</th><th>Reason</th></tr><tr><td>Vaccine product containing only Influenza virus antigen (medicinal product)</td><td><span class=\"nb\">01-Oct-2025</span></td><td>Annual seasonal influenza vaccination</td></tr></table></div>"
            },
            "title": "Care Plan",
            "code": {
              "coding": [
                {
                  "code": "18776-5",
                  "system": "http://loinc.org",
                  "display": "Plan of care note"
                }
              ]
            }
          },
          {
            "text": {
              "status": "generated",
              "div": "<div xmlns=\"http://www.w3.org/1999/xhtml\"><table class=\"hl7__ips\"><tr><th>Vital Signs</th><th>2025-07-19</th><th>2025-07-05</th></tr><tr><td>Body Height</td><td>179.8 cm</td><td>179.8 cm</td></tr><tr><td>Pain severity - 0-10 verbal numeric rating [Score] - Reported</td><td>4 {score}</td><td>4 {score}</td></tr><tr><td>Body Weight</td><td>90.1 kg</td><td>90.1 kg</td></tr><tr><td>Body mass index (BMI) [Ratio]</td><td>27.9 kg/m2</td><td>27.9 kg/m2</td></tr><tr><td>Diastolic Blood Pressure</td><td>85 mm[Hg]</td><td>87 mm[Hg]</td></tr><tr><td>Systolic Blood Pressure</td><td>141 mm[Hg]</td><td>129 mm[Hg]</td></tr><tr><td>Heart rate</td><td>81 /min</td><td>79 /min</td></tr><tr><td>Respiratory rate</td><td>14 /min</td><td>13 /min</td></tr></table></div>"
            },
            "entry": [
              {
                "reference": "urn:uuid:9cda42c7-3f4c-42ab-9bdf-508b8292a230"
              }
            ],
            "code": {
              "coding": [
                {
                  "system": "http://loinc.org",
                  "code": "8716-3",
                  "display": "Vital signs note"
                }
              ]
            },
            "title": "Vital Signs"
          },
          {
            "text": {
              "status": "generated",
              "div": "<div xmlns=\"http://www.w3.org/1999/xhtml\"><table class=\"hl7__ips\"><table class=\"hl7__ips\"><thead><tr><th>Recent Lab Observations</th><th>19-JUL-2025</th><th>Reference&#xA0;Range</th><th>Unit</th></tr></thead><tbody><tr><td>Glucose [Mass/volume] in Serum or Plasma</td><td><strong>66.4 L</strong></td><td>70 - 140</td><td>mg/dL</td></tr><tr><td>Urea nitrogen [Mass/volume] in Serum or Plasma</td><td>16.6</td><td>7 - 20</td><td>mg/dL</td></tr><tr><td>Creatinine [Mass/volume] in Serum or Plasma</td><td><strong>1.8 H</strong></td><td>0.9 - 1.3</td><td>mg/dL</td></tr><tr><td>Calcium [Mass/volume] in Serum or Plasma</td><td>9.5</td><td>8.5 - 10.5</td><td>mg/dL</td></tr><tr><td>Sodium [Moles/volume] in Serum or Plasma</td><td>141.8</td><td>135 - 145</td><td>mmol/L</td></tr><tr><td>Potassium [Moles/volume] in Serum or Plasma</td><td>4.1</td><td>3.5 - 5.1</td><td>mmol/L</td></tr><tr><td>Chloride [Moles/volume] in Serum or Plasma</td><td>101.6</td><td>98 - 114</td><td>mmol/L</td></tr><tr><td>Carbon dioxide, total [Moles/volume] in Serum or Plasma</td><td>22.2</td><td>22 - 29</td><td>mmol/L</td></tr><tr><td>Appearance of Urine</td><td>Cloudy urine</td><td></td><td></td></tr><tr><td>Odor of Urine</td><td>Urine smell ammoniacal</td><td></td><td></td></tr><tr><td>Clarity of Urine</td><td>Translucent</td><td></td><td></td></tr><tr><td>Color of Urine</td><td>Brown color</td><td></td><td></td></tr><tr><td>Glucose [Mass/volume] in Urine by Test strip</td><td><strong>2.2 H</strong></td><td>0 - 1</td><td>mg/dL</td></tr><tr><td>Glucose [Presence] in Urine by Test strip</td><td>++</td><td></td><td></td></tr><tr><td>Bilirubin.total [Mass/volume] in Urine by Test strip</td><td>0.7</td><td>0.1 - 1.2</td><td>mg/dL</td></tr><tr><td>Bilirubin.total [Presence] in Urine by Test strip</td><td>Finding of bilirubin in urine</td><td></td><td></td></tr><tr><td>Ketones [Mass/volume] in Urine by Test strip</td><td>17.0</td><td>0 - 20</td><td>mg/dL</td></tr><tr><td>Ketones [Presence] in Urine by Test strip</td><td>Urine ketone test = +</td><td></td><td></td></tr><tr><td>Specific gravity of Urine by Test strip</td><td><strong>1.0 L</strong></td><td>1.005 - 1.03</td><td>{nominal}</td></tr><tr><td>pH of Urine by Test strip</td><td>6.0</td><td>4.5 - 7.5</td><td>pH</td></tr><tr><td>Protein [Mass/volume] in Urine by Test strip</td><td><strong>196.3 H</strong></td><td>0 - 14</td><td>mg/dL</td></tr><tr><td>Protein [Presence] in Urine by Test strip</td><td>Urine protein test = ++</td><td></td><td></td></tr><tr><td>Nitrite [Presence] in Urine by Test strip</td><td>Urine nitrite negative</td><td></td><td></td></tr><tr><td>Hemoglobin [Presence] in Urine by Test strip</td><td>Urine blood test = negative</td><td></td><td></td></tr><tr><td>Leukocyte esterase [Presence] in Urine by Test strip</td><td>Urine leukocyte test negative</td><td></td><td></td></tr><tr><td>Hemoglobin A1c/Hemoglobin.total in Blood</td><td>5.5</td><td>4 - 6</td><td>%</td></tr><tr><td>Glucose [Mass/volume] in Blood</td><td><strong>66.4 L</strong></td><td>70 - 140</td><td>mg/dL</td></tr><tr><td>Urea nitrogen [Mass/volume] in Blood</td><td>16.6</td><td>7 - 20</td><td>mg/dL</td></tr><tr><td>Creatinine [Mass/volume] in Blood</td><td><strong>2.0 H</strong></td><td>0.9 - 1.3</td><td>mg/dL</td></tr><tr><td>Calcium [Mass/volume] in Blood</td><td>9.5</td><td>8.5 - 10.5</td><td>mg/dL</td></tr><tr><td>Sodium [Moles/volume] in Blood</td><td>141.8</td><td>135 - 145</td><td>mmol/L</td></tr><tr><td>Potassium [Moles/volume] in Blood</td><td>4.1</td><td>3.5 - 5</td><td>mmol/L</td></tr><tr><td>Chloride [Moles/volume] in Blood</td><td>101.6</td><td>98 - 110</td><td>mmol/L</td></tr><tr><td>Carbon dioxide, total [Moles/volume] in Blood</td><td><strong>22.2 L</strong></td><td>24 - 29</td><td>mmol/L</td></tr><tr><td>Cholesterol [Mass/volume] in Serum or Plasma</td><td>162.6</td><td>125 - 239</td><td>mg/dL</td></tr><tr><td>Triglyceride [Mass/volume] in Serum or Plasma</td><td>145.6</td><td>10 - 200</td><td>mg/dL</td></tr><tr><td>Cholesterol in LDL [Mass/volume] in Serum or Plasma by Direct assay</td><td>73.4</td><td>0 - 130</td><td>mg/dL</td></tr><tr><td>Cholesterol in HDL [Mass/volume] in Serum or Plasma</td><td>60.1</td><td>40 - 100</td><td>mg/dL</td></tr><tr><td>Microalbumin/Creatinine [Mass Ratio] in Urine</td><td>28.9</td><td>3 - 30</td><td>mg/g</td></tr></tbody></table></table></div>"
            },
            "title": "Relevant diagnostic tests/laboratory data",
            "code": {
              "coding": [
                {
                  "code": "30954-2",
                  "system": "http://loinc.org",
                  "display": "Relevant diagnostic tests/laboratory data note"
                }
              ]
            }
          },
          {
            "text": {
              "status": "generated",
              "div": "<div xmlns=\"http://www.w3.org/1999/xhtml\"><table class=\"hl7__ips\"><tr><th>Device</th><th>Date (since)</th></tr><tr><td>Blood glucose meter (physical object)</td><td><span class=\"nb\">28-Apr-1962</span></td></tr></table></div>"
            },
            "entry": [
              {
                "reference": "urn:uuid:ae0decbb-6b30-4809-89ce-336885b2b059"
              }
            ],
            "code": {
              "coding": [
                {
                  "system": "http://loinc.org",
                  "code": "46264-8",
                  "display": "History of medical device use"
                }
              ]
            },
            "title": "Device Use"
          }
        ],
        "title": "European Patient Summary",
        "status": "final",
        "subject": {
          "reference": "urn:uuid:01469b58-e2ac-4252-ad24-90a408b24235",
          "display": "Noé Naranjo"
        },
        "custodian": {
          "reference": "urn:uuid:e34fb1f1-c2b2-4bd1-ace7-218b74e65de7"
        },
        "date": "2025-07-19",
        "confidentiality": "N"
      }
    },
    {
      "fullUrl": "urn:uuid:01469b58-e2ac-4252-ad24-90a408b24235",
      "resource": {
        "resourceType": "Patient",
        "id": "01469b58-e2ac-4252-ad24-90a408b24235",
        "meta": {
          "security": [
            {
              "system": "http://terminology.hl7.org/CodeSystem/v3-ActReason",
              "code": "HTEST"
            },
            {
              "system": "http://terminology.hl7.org/CodeSystem/v3-ActReason",
              "code": "TRAIN"
            }
          ],
          "tag": [
            {
              "system": "https://synderai.net/fhir/CodeSystem/tags",
              "code": "synthetic",
              "display": "SYNDERAI Synthetic data"
            }
          ],
          "profile": [
            "http://hl7.eu/fhir/eps/StructureDefinition/patient-eu-eps"
          ]
        },
        "identifier": [
          {
            "type": {
              "coding": [
                {
                  "code": "PT",
                  "system": "http://terminology.hl7.org/CodeSystem/v2-0203"
                }
              ]
            },
            "system": "http://ec.europa.eu/identifier/eci",
            "value": "4002-059080-4"
          },
          {
            "type": {
              "coding": [
                {
                  "code": "MR",
                  "system": "http://terminology.hl7.org/CodeSystem/v2-0203"
                }
              ]
            },
            "system": "http://local.setting.eu/identifier",
            "value": "58c46d87-448a-4ce9-6a8f-0eaef9bf7815"
          }
        ],
        "name": [
          {
            "given": [
              "Noé"
            ],
            "family": "Naranjo",
            "text": "Noé Naranjo"
          }
        ],
        "address": [
          {
            "line": [
              "Pasadizo Irene Girona 48 Puerta 9 "
            ],
            "use": "home",
            "type": "physical",
            "postalCode": "36002",
            "city": "Pontevedra",
            "country": "Spain"
          }
        ],
        "telecom": [
          {
            "system": "phone",
            "value": "+34806950214"
          }
        ],
        "extension": [
          {
            "url": "http://hl7.org/fhir/StructureDefinition/patient-nationality",
            "valueCodeableConcept": {
              "coding": [
                {
                  "code": "ES",
                  "system": "http://hl7.org/fhir/ValueSet/country"
                }
              ]
            }
          }
        ],
        "text": {
          "status": "generated",
          "div": "<div xmlns=\"http://www.w3.org/1999/xhtml\"><table class=\"hl7__ips\"><tr><td>Noé Naranjo</td><td>male</td><td>22-Jan-1943</td></tr></table></div>"
        },
        "gender": "male",
        "birthDate": "1943-01-22"
      }
    },
    {
      "fullUrl": "urn:uuid:233ec99e-1db1-48e1-9bc1-7595ed43586d",
      "resource": {
        "resourceType": "PractitionerRole",
        "id": "233ec99e-1db1-48e1-9bc1-7595ed43586d",
        "meta": {
          "profile": [
            "http://hl7.eu/fhir/base/StructureDefinition/practitionerRole-eu"
          ]
        },
        "text": {
          "status": "generated",
          "div": "<div xmlns=\"http://www.w3.org/1999/xhtml\"><table class=\"hl7__ips\">Provider Role Id 233ec99e-1db1-48e1-9bc1-7595ed43586d</table></div>"
        },
        "practitioner": {
          "reference": "urn:uuid:425fd615-c8a3-44dc-afcd-cde3843652c6"
        },
        "organization": {
          "reference": "urn:uuid:e34fb1f1-c2b2-4bd1-ace7-218b74e65de7"
        }
      }
    },
    {
      "fullUrl": "urn:uuid:e34fb1f1-c2b2-4bd1-ace7-218b74e65de7",
      "resource": {
        "resourceType": "Organization",
        "id": "e34fb1f1-c2b2-4bd1-ace7-218b74e65de7",
        "meta": {
          "profile": [
            "http://hl7.eu/fhir/base/StructureDefinition/organization-eu"
          ]
        },
        "identifier": [
          {
            "assigner": {
              "display": "HL7 Europe"
            },
            "system": "urn:oid:2.16.840.1.113883.2.51.999",
            "value": "826bb334-17c6-4428-816f-d9c1c7f423a4"
          }
        ],
        "address": [
          {
            "line": [
              "Rúa Doctor Loureiro Crespo 2"
            ],
            "city": "Pontevedra",
            "postalCode": "36002",
            "country": "Spain"
          }
        ],
        "text": {
          "status": "generated",
          "div": "<div xmlns=\"http://www.w3.org/1999/xhtml\"><table class=\"hl7__ips\">Hospital Provincial de Pontevedra</table></div>"
        },
        "name": "Hospital Provincial de Pontevedra"
      }
    },
    {
      "fullUrl": "urn:uuid:425fd615-c8a3-44dc-afcd-cde3843652c6",
      "resource": {
        "resourceType": "Practitioner",
        "id": "425fd615-c8a3-44dc-afcd-cde3843652c6",
        "meta": {
          "profile": [
            "http://hl7.eu/fhir/base/StructureDefinition/practitioner-eu"
          ]
        },
        "name": [
          {
            "prefix": [
              "Dr."
            ],
            "given": [
              "Hel"
            ],
            "family": "Ping"
          }
        ],
        "text": {
          "status": "generated",
          "div": "<div xmlns=\"http://www.w3.org/1999/xhtml\"><table class=\"hl7__ips\">Dr. Hel Ping</table></div>"
        }
      }
    },
    {
      "fullUrl": "urn:uuid:e7fd6982-31db-4168-b667-8a47f648af50",
      "resource": {
        "resourceType": "Condition",
        "id": "e7fd6982-31db-4168-b667-8a47f648af50",
        "meta": {
          "profile": [
            "http://hl7.org/fhir/uv/ips/StructureDefinition/Condition-uv-ips"
          ]
        },
        "category": [
          {
            "coding": [
              {
                "code": "problem-list-item",
                "system": "http://terminology.hl7.org/CodeSystem/condition-category",
                "display": "Problem List Item"
              }
            ]
          }
        ],
        "code": {
          "coding": [
            {
              "code": "64859006",
              "system": "http://snomed.info/sct",
              "display": "Osteoporosis (disorder)"
            }
          ],
          "text": "Osteoporosis"
        },
        "text": {
          "status": "generated",
          "div": "<div xmlns=\"http://www.w3.org/1999/xhtml\"><table class=\"hl7__ips\"><tr><td>Osteoporosis</td><td><span class=\"nb\">04-Feb-2019</span></td><td>active</td></tr></table></div>"
        },
        "onsetDateTime": "2019-02-04",
        "subject": {
          "reference": "urn:uuid:01469b58-e2ac-4252-ad24-90a408b24235",
          "display": "Noé Naranjo"
        },
        "asserter": {
          "reference": "urn:uuid:233ec99e-1db1-48e1-9bc1-7595ed43586d",
          "display": "Hospital Provincial de Pontevedra"
        }
      }
    },
    {
      "fullUrl": "urn:uuid:f62a573e-3f86-4acf-8592-39c8ead5ffcb",
      "resource": {
        "resourceType": "Condition",
        "id": "f62a573e-3f86-4acf-8592-39c8ead5ffcb",
        "meta": {
          "profile": [
            "http://hl7.org/fhir/uv/ips/StructureDefinition/Condition-uv-ips"
          ]
        },
        "category": [
          {
            "coding": [
              {
                "code": "problem-list-item",
                "system": "http://terminology.hl7.org/CodeSystem/condition-category",
                "display": "Problem List Item"
              }
            ]
          }
        ],
        "code": {
          "coding": [
            {
              "code": "26929004",
              "system": "http://snomed.info/sct",
              "display": "Alzheimer&#039;s disease (disorder)"
            }
          ],
          "text": "Alzheimer&#039;s disease"
        },
        "text": {
          "status": "generated",
          "div": "<div xmlns=\"http://www.w3.org/1999/xhtml\"><table class=\"hl7__ips\"><tr><td>Alzheimer's disease</td><td><span class=\"nb\">17-Oct-2014</span></td><td>active</td></tr></table></div>"
        },
        "onsetDateTime": "2014-10-17",
        "subject": {
          "reference": "urn:uuid:01469b58-e2ac-4252-ad24-90a408b24235",
          "display": "Noé Naranjo"
        },
        "asserter": {
          "reference": "urn:uuid:233ec99e-1db1-48e1-9bc1-7595ed43586d",
          "display": "Hospital Provincial de Pontevedra"
        }
      }
    },
    {
      "fullUrl": "urn:uuid:440160ad-3d87-4944-9d1a-b5b3f24025a8",
      "resource": {
        "resourceType": "Condition",
        "id": "440160ad-3d87-4944-9d1a-b5b3f24025a8",
        "meta": {
          "profile": [
            "http://hl7.org/fhir/uv/ips/StructureDefinition/Condition-uv-ips"
          ]
        },
        "category": [
          {
            "coding": [
              {
                "code": "problem-list-item",
                "system": "http://terminology.hl7.org/CodeSystem/condition-category",
                "display": "Problem List Item"
              }
            ]
          }
        ],
        "code": {
          "coding": [
            {
              "code": "6525002",
              "system": "http://snomed.info/sct",
              "display": "Dependent drug abuse (disorder)"
            }
          ],
          "text": "Dependent drug abuse"
        },
        "text": {
          "status": "generated",
          "div": "<div xmlns=\"http://www.w3.org/1999/xhtml\"><table class=\"hl7__ips\"><tr><td>Dependent drug abuse</td><td><span class=\"nb\">27-Apr-2014</span></td><td>active</td></tr></table></div>"
        },
        "onsetDateTime": "2014-04-27",
        "subject": {
          "reference": "urn:uuid:01469b58-e2ac-4252-ad24-90a408b24235",
          "display": "Noé Naranjo"
        },
        "asserter": {
          "reference": "urn:uuid:233ec99e-1db1-48e1-9bc1-7595ed43586d",
          "display": "Hospital Provincial de Pontevedra"
        }
      }
    },
    {
      "fullUrl": "urn:uuid:0d1873d4-1428-48ab-b11d-1c67c4fb8f65",
      "resource": {
        "resourceType": "Condition",
        "id": "0d1873d4-1428-48ab-b11d-1c67c4fb8f65",
        "meta": {
          "profile": [
            "http://hl7.org/fhir/uv/ips/StructureDefinition/Condition-uv-ips"
          ]
        },
        "category": [
          {
            "coding": [
              {
                "code": "problem-list-item",
                "system": "http://terminology.hl7.org/CodeSystem/condition-category",
                "display": "Problem List Item"
              }
            ]
          }
        ],
        "code": {
          "coding": [
            {
              "code": "401303003",
              "system": "http://snomed.info/sct",
              "display": "Acute ST segment elevation myocardial infarction (disorder)"
            }
          ],
          "text": "Acute ST segment elevation myocardial infarction"
        },
        "text": {
          "status": "generated",
          "div": "<div xmlns=\"http://www.w3.org/1999/xhtml\"><table class=\"hl7__ips\"><tr><td>Acute ST segment elevation myocardial infarction</td><td><span class=\"nb\">17-May-2011</span></td><td>active</td></tr></table></div>"
        },
        "onsetDateTime": "2011-05-17",
        "subject": {
          "reference": "urn:uuid:01469b58-e2ac-4252-ad24-90a408b24235",
          "display": "Noé Naranjo"
        },
        "asserter": {
          "reference": "urn:uuid:233ec99e-1db1-48e1-9bc1-7595ed43586d",
          "display": "Hospital Provincial de Pontevedra"
        }
      }
    },
    {
      "fullUrl": "urn:uuid:7fec74f1-3123-41de-a8f9-e70f3be30729",
      "resource": {
        "resourceType": "Condition",
        "id": "7fec74f1-3123-41de-a8f9-e70f3be30729",
        "meta": {
          "profile": [
            "http://hl7.org/fhir/uv/ips/StructureDefinition/Condition-uv-ips"
          ]
        },
        "category": [
          {
            "coding": [
              {
                "code": "problem-list-item",
                "system": "http://terminology.hl7.org/CodeSystem/condition-category",
                "display": "Problem List Item"
              }
            ]
          }
        ],
        "code": {
          "coding": [
            {
              "code": "431856006",
              "system": "http://snomed.info/sct",
              "display": "Chronic kidney disease stage 2 (disorder)"
            }
          ],
          "text": "Chronic kidney disease stage 2"
        },
        "text": {
          "status": "generated",
          "div": "<div xmlns=\"http://www.w3.org/1999/xhtml\"><table class=\"hl7__ips\"><tr><td>Chronic kidney disease stage 2</td><td><span class=\"nb\">15-Sep-2007</span></td><td>active</td></tr></table></div>"
        },
        "onsetDateTime": "2007-09-15",
        "subject": {
          "reference": "urn:uuid:01469b58-e2ac-4252-ad24-90a408b24235",
          "display": "Noé Naranjo"
        },
        "asserter": {
          "reference": "urn:uuid:233ec99e-1db1-48e1-9bc1-7595ed43586d",
          "display": "Hospital Provincial de Pontevedra"
        }
      }
    },
    {
      "fullUrl": "urn:uuid:3535afee-93a1-494d-96d9-afbef254eb36",
      "resource": {
        "resourceType": "Condition",
        "id": "3535afee-93a1-494d-96d9-afbef254eb36",
        "meta": {
          "profile": [
            "http://hl7.org/fhir/uv/ips/StructureDefinition/Condition-uv-ips"
          ]
        },
        "category": [
          {
            "coding": [
              {
                "code": "problem-list-item",
                "system": "http://terminology.hl7.org/CodeSystem/condition-category",
                "display": "Problem List Item"
              }
            ]
          }
        ],
        "code": {
          "coding": [
            {
              "code": "90781000119102",
              "system": "http://snomed.info/sct",
              "display": "Microalbuminuria due to type 2 diabetes mellitus (disorder)"
            }
          ],
          "text": "Microalbuminuria due to type 2 diabetes mellitus"
        },
        "text": {
          "status": "generated",
          "div": "<div xmlns=\"http://www.w3.org/1999/xhtml\"><table class=\"hl7__ips\"><tr><td>Microalbuminuria due to type 2 diabetes mellitus</td><td><span class=\"nb\">15-Sep-2007</span></td><td>active</td></tr></table></div>"
        },
        "onsetDateTime": "2007-09-15",
        "subject": {
          "reference": "urn:uuid:01469b58-e2ac-4252-ad24-90a408b24235",
          "display": "Noé Naranjo"
        },
        "asserter": {
          "reference": "urn:uuid:233ec99e-1db1-48e1-9bc1-7595ed43586d",
          "display": "Hospital Provincial de Pontevedra"
        }
      }
    },
    {
      "fullUrl": "urn:uuid:5eb26bdf-5301-4bc0-a530-7aba318288d7",
      "resource": {
        "resourceType": "Condition",
        "id": "5eb26bdf-5301-4bc0-a530-7aba318288d7",
        "meta": {
          "profile": [
            "http://hl7.org/fhir/uv/ips/StructureDefinition/Condition-uv-ips"
          ]
        },
        "category": [
          {
            "coding": [
              {
                "code": "problem-list-item",
                "system": "http://terminology.hl7.org/CodeSystem/condition-category",
                "display": "Problem List Item"
              }
            ]
          }
        ],
        "code": {
          "coding": [
            {
              "code": "127013003",
              "system": "http://snomed.info/sct",
              "display": "Disorder of kidney due to diabetes mellitus (disorder)"
            }
          ],
          "text": "Disorder of kidney due to diabetes mellitus"
        },
        "text": {
          "status": "generated",
          "div": "<div xmlns=\"http://www.w3.org/1999/xhtml\"><table class=\"hl7__ips\"><tr><td>Disorder of kidney due to diabetes mellitus</td><td><span class=\"nb\">24-Nov-2001</span></td><td>active</td></tr></table></div>"
        },
        "onsetDateTime": "2001-11-24",
        "subject": {
          "reference": "urn:uuid:01469b58-e2ac-4252-ad24-90a408b24235",
          "display": "Noé Naranjo"
        },
        "asserter": {
          "reference": "urn:uuid:233ec99e-1db1-48e1-9bc1-7595ed43586d",
          "display": "Hospital Provincial de Pontevedra"
        }
      }
    },
    {
      "fullUrl": "urn:uuid:f6354d1c-3c00-4419-8e66-63929915f1cb",
      "resource": {
        "resourceType": "Condition",
        "id": "f6354d1c-3c00-4419-8e66-63929915f1cb",
        "meta": {
          "profile": [
            "http://hl7.org/fhir/uv/ips/StructureDefinition/Condition-uv-ips"
          ]
        },
        "category": [
          {
            "coding": [
              {
                "code": "problem-list-item",
                "system": "http://terminology.hl7.org/CodeSystem/condition-category",
                "display": "Problem List Item"
              }
            ]
          }
        ],
        "code": {
          "coding": [
            {
              "code": "431855005",
              "system": "http://snomed.info/sct",
              "display": "Chronic kidney disease stage 1 (disorder)"
            }
          ],
          "text": "Chronic kidney disease stage 1"
        },
        "text": {
          "status": "generated",
          "div": "<div xmlns=\"http://www.w3.org/1999/xhtml\"><table class=\"hl7__ips\"><tr><td>Chronic kidney disease stage 1</td><td><span class=\"nb\">24-Nov-2001</span></td><td>active</td></tr></table></div>"
        },
        "onsetDateTime": "2001-11-24",
        "subject": {
          "reference": "urn:uuid:01469b58-e2ac-4252-ad24-90a408b24235",
          "display": "Noé Naranjo"
        },
        "asserter": {
          "reference": "urn:uuid:233ec99e-1db1-48e1-9bc1-7595ed43586d",
          "display": "Hospital Provincial de Pontevedra"
        }
      }
    },
    {
      "fullUrl": "urn:uuid:7198be4b-47ba-43f5-9e39-437c5b27d5e1",
      "resource": {
        "resourceType": "Condition",
        "id": "7198be4b-47ba-43f5-9e39-437c5b27d5e1",
        "meta": {
          "profile": [
            "http://hl7.org/fhir/uv/ips/StructureDefinition/Condition-uv-ips"
          ]
        },
        "category": [
          {
            "coding": [
              {
                "code": "problem-list-item",
                "system": "http://terminology.hl7.org/CodeSystem/condition-category",
                "display": "Problem List Item"
              }
            ]
          }
        ],
        "code": {
          "coding": [
            {
              "code": "80394007",
              "system": "http://snomed.info/sct",
              "display": "Hyperglycemia (disorder)"
            }
          ],
          "text": "Hyperglycemia"
        },
        "text": {
          "status": "generated",
          "div": "<div xmlns=\"http://www.w3.org/1999/xhtml\"><table class=\"hl7__ips\"><tr><td>Hyperglycemia</td><td><span class=\"nb\">09-Nov-1996</span></td><td>active</td></tr></table></div>"
        },
        "onsetDateTime": "1996-11-09",
        "subject": {
          "reference": "urn:uuid:01469b58-e2ac-4252-ad24-90a408b24235",
          "display": "Noé Naranjo"
        },
        "asserter": {
          "reference": "urn:uuid:233ec99e-1db1-48e1-9bc1-7595ed43586d",
          "display": "Hospital Provincial de Pontevedra"
        }
      }
    },
    {
      "fullUrl": "urn:uuid:3104f71b-ea5f-4ad6-8ecc-4a2af239b6d6",
      "resource": {
        "resourceType": "Condition",
        "id": "3104f71b-ea5f-4ad6-8ecc-4a2af239b6d6",
        "meta": {
          "profile": [
            "http://hl7.org/fhir/uv/ips/StructureDefinition/Condition-uv-ips"
          ]
        },
        "category": [
          {
            "coding": [
              {
                "code": "problem-list-item",
                "system": "http://terminology.hl7.org/CodeSystem/condition-category",
                "display": "Problem List Item"
              }
            ]
          }
        ],
        "code": {
          "coding": [
            {
              "code": "414545008",
              "system": "http://snomed.info/sct",
              "display": "Ischemic heart disease (disorder)"
            }
          ],
          "text": "Ischemic heart disease"
        },
        "text": {
          "status": "generated",
          "div": "<div xmlns=\"http://www.w3.org/1999/xhtml\"><table class=\"hl7__ips\"><tr><td>Ischemic heart disease</td><td><span class=\"nb\">06-Oct-1990</span></td><td>active</td></tr></table></div>"
        },
        "onsetDateTime": "1990-10-06",
        "subject": {
          "reference": "urn:uuid:01469b58-e2ac-4252-ad24-90a408b24235",
          "display": "Noé Naranjo"
        },
        "asserter": {
          "reference": "urn:uuid:233ec99e-1db1-48e1-9bc1-7595ed43586d",
          "display": "Hospital Provincial de Pontevedra"
        }
      }
    },
    {
      "fullUrl": "urn:uuid:4a4a016d-662c-47b8-b70d-6bbb86e36889",
      "resource": {
        "resourceType": "Condition",
        "id": "4a4a016d-662c-47b8-b70d-6bbb86e36889",
        "meta": {
          "profile": [
            "http://hl7.org/fhir/uv/ips/StructureDefinition/Condition-uv-ips"
          ]
        },
        "category": [
          {
            "coding": [
              {
                "code": "problem-list-item",
                "system": "http://terminology.hl7.org/CodeSystem/condition-category",
                "display": "Problem List Item"
              }
            ]
          }
        ],
        "code": {
          "coding": [
            {
              "code": "237602007",
              "system": "http://snomed.info/sct",
              "display": "Metabolic syndrome X (disorder)"
            }
          ],
          "text": "Metabolic syndrome X"
        },
        "text": {
          "status": "generated",
          "div": "<div xmlns=\"http://www.w3.org/1999/xhtml\"><table class=\"hl7__ips\"><tr><td>Metabolic syndrome X</td><td><span class=\"nb\">13-Sep-1986</span></td><td>active</td></tr></table></div>"
        },
        "onsetDateTime": "1986-09-13",
        "subject": {
          "reference": "urn:uuid:01469b58-e2ac-4252-ad24-90a408b24235",
          "display": "Noé Naranjo"
        },
        "asserter": {
          "reference": "urn:uuid:233ec99e-1db1-48e1-9bc1-7595ed43586d",
          "display": "Hospital Provincial de Pontevedra"
        }
      }
    },
    {
      "fullUrl": "urn:uuid:d12a0f82-0d28-46a6-a30e-b1e12272c1e2",
      "resource": {
        "resourceType": "Condition",
        "id": "d12a0f82-0d28-46a6-a30e-b1e12272c1e2",
        "meta": {
          "profile": [
            "http://hl7.org/fhir/uv/ips/StructureDefinition/Condition-uv-ips"
          ]
        },
        "category": [
          {
            "coding": [
              {
                "code": "problem-list-item",
                "system": "http://terminology.hl7.org/CodeSystem/condition-category",
                "display": "Problem List Item"
              }
            ]
          }
        ],
        "code": {
          "coding": [
            {
              "code": "302870006",
              "system": "http://snomed.info/sct",
              "display": "Hypertriglyceridemia (disorder)"
            }
          ],
          "text": "Hypertriglyceridemia"
        },
        "text": {
          "status": "generated",
          "div": "<div xmlns=\"http://www.w3.org/1999/xhtml\"><table class=\"hl7__ips\"><tr><td>Hypertriglyceridemia</td><td><span class=\"nb\">13-Sep-1986</span></td><td>active</td></tr></table></div>"
        },
        "onsetDateTime": "1986-09-13",
        "subject": {
          "reference": "urn:uuid:01469b58-e2ac-4252-ad24-90a408b24235",
          "display": "Noé Naranjo"
        },
        "asserter": {
          "reference": "urn:uuid:233ec99e-1db1-48e1-9bc1-7595ed43586d",
          "display": "Hospital Provincial de Pontevedra"
        }
      }
    },
    {
      "fullUrl": "urn:uuid:5ede9666-1597-4ee1-aece-b9f9a8f748d0",
      "resource": {
        "resourceType": "Condition",
        "id": "5ede9666-1597-4ee1-aece-b9f9a8f748d0",
        "meta": {
          "profile": [
            "http://hl7.org/fhir/uv/ips/StructureDefinition/Condition-uv-ips"
          ]
        },
        "category": [
          {
            "coding": [
              {
                "code": "problem-list-item",
                "system": "http://terminology.hl7.org/CodeSystem/condition-category",
                "display": "Problem List Item"
              }
            ]
          }
        ],
        "code": {
          "coding": [
            {
              "code": "44054006",
              "system": "http://snomed.info/sct",
              "display": "Diabetes mellitus type 2 (disorder)"
            }
          ],
          "text": "Type 2 diabetes mellitus"
        },
        "text": {
          "status": "generated",
          "div": "<div xmlns=\"http://www.w3.org/1999/xhtml\"><table class=\"hl7__ips\"><tr><td>Type 2 diabetes mellitus</td><td><span class=\"nb\">07-Sep-1985</span></td><td>active</td></tr></table></div>"
        },
        "onsetDateTime": "1985-09-07",
        "subject": {
          "reference": "urn:uuid:01469b58-e2ac-4252-ad24-90a408b24235",
          "display": "Noé Naranjo"
        },
        "asserter": {
          "reference": "urn:uuid:233ec99e-1db1-48e1-9bc1-7595ed43586d",
          "display": "Hospital Provincial de Pontevedra"
        }
      }
    },
    {
      "fullUrl": "urn:uuid:797d6a7e-ed7c-442f-850f-41025c3baefc",
      "resource": {
        "resourceType": "Condition",
        "id": "797d6a7e-ed7c-442f-850f-41025c3baefc",
        "meta": {
          "profile": [
            "http://hl7.org/fhir/uv/ips/StructureDefinition/Condition-uv-ips"
          ]
        },
        "category": [
          {
            "coding": [
              {
                "code": "problem-list-item",
                "system": "http://terminology.hl7.org/CodeSystem/condition-category",
                "display": "Problem List Item"
              }
            ]
          }
        ],
        "code": {
          "coding": [
            {
              "code": "271737000",
              "system": "http://snomed.info/sct",
              "display": "Anemia (disorder)"
            }
          ],
          "text": "Anemia"
        },
        "text": {
          "status": "generated",
          "div": "<div xmlns=\"http://www.w3.org/1999/xhtml\"><table class=\"hl7__ips\"><tr><td>Anemia</td><td><span class=\"nb\">21-May-1966</span></td><td>active</td></tr></table></div>"
        },
        "onsetDateTime": "1966-05-21",
        "subject": {
          "reference": "urn:uuid:01469b58-e2ac-4252-ad24-90a408b24235",
          "display": "Noé Naranjo"
        },
        "asserter": {
          "reference": "urn:uuid:233ec99e-1db1-48e1-9bc1-7595ed43586d",
          "display": "Hospital Provincial de Pontevedra"
        }
      }
    },
    {
      "fullUrl": "urn:uuid:ab1a7266-b9e0-4462-94c0-8ac7f42ca2c9",
      "resource": {
        "resourceType": "Condition",
        "id": "ab1a7266-b9e0-4462-94c0-8ac7f42ca2c9",
        "meta": {
          "profile": [
            "http://hl7.org/fhir/uv/ips/StructureDefinition/Condition-uv-ips"
          ]
        },
        "category": [
          {
            "coding": [
              {
                "code": "problem-list-item",
                "system": "http://terminology.hl7.org/CodeSystem/condition-category",
                "display": "Problem List Item"
              }
            ]
          }
        ],
        "code": {
          "coding": [
            {
              "code": "15777000",
              "system": "http://snomed.info/sct",
              "display": "Prediabetes (disorder)"
            }
          ],
          "text": "Prediabetes"
        },
        "text": {
          "status": "generated",
          "div": "<div xmlns=\"http://www.w3.org/1999/xhtml\"><table class=\"hl7__ips\"><tr><td>Prediabetes</td><td><span class=\"nb\">28-Apr-1962</span></td><td>active</td></tr></table></div>"
        },
        "onsetDateTime": "1962-04-28",
        "subject": {
          "reference": "urn:uuid:01469b58-e2ac-4252-ad24-90a408b24235",
          "display": "Noé Naranjo"
        },
        "asserter": {
          "reference": "urn:uuid:233ec99e-1db1-48e1-9bc1-7595ed43586d",
          "display": "Hospital Provincial de Pontevedra"
        }
      }
    },
    {
      "fullUrl": "urn:uuid:58340cb1-8157-47b3-850b-b791e7331c41",
      "resource": {
        "resourceType": "Condition",
        "id": "58340cb1-8157-47b3-850b-b791e7331c41",
        "meta": {
          "profile": [
            "http://hl7.org/fhir/uv/ips/StructureDefinition/Condition-uv-ips"
          ]
        },
        "category": [
          {
            "coding": [
              {
                "code": "problem-list-item",
                "system": "http://terminology.hl7.org/CodeSystem/condition-category",
                "display": "Problem List Item"
              }
            ]
          }
        ],
        "code": {
          "coding": [
            {
              "code": "59621000",
              "system": "http://snomed.info/sct",
              "display": "Essential hypertension (disorder)"
            }
          ],
          "text": "Essential hypertension"
        },
        "text": {
          "status": "generated",
          "div": "<div xmlns=\"http://www.w3.org/1999/xhtml\"><table class=\"hl7__ips\"><tr><td>Essential hypertension</td><td><span class=\"nb\">05-Apr-1958</span></td><td>active</td></tr></table></div>"
        },
        "onsetDateTime": "1958-04-05",
        "subject": {
          "reference": "urn:uuid:01469b58-e2ac-4252-ad24-90a408b24235",
          "display": "Noé Naranjo"
        },
        "asserter": {
          "reference": "urn:uuid:233ec99e-1db1-48e1-9bc1-7595ed43586d",
          "display": "Hospital Provincial de Pontevedra"
        }
      }
    },
    {
      "fullUrl": "urn:uuid:5dcb2419-d530-4a30-9a3a-4bb288fa576e",
      "resource": {
        "resourceType": "Condition",
        "id": "5dcb2419-d530-4a30-9a3a-4bb288fa576e",
        "meta": {
          "profile": [
            "http://hl7.org/fhir/uv/ips/StructureDefinition/Condition-uv-ips"
          ]
        },
        "category": [
          {
            "coding": [
              {
                "code": "problem-list-item",
                "system": "http://terminology.hl7.org/CodeSystem/condition-category",
                "display": "Problem List Item"
              }
            ]
          }
        ],
        "code": {
          "coding": [
            {
              "code": "10509002",
              "system": "http://snomed.info/sct",
              "display": "Acute bronchitis (disorder)"
            }
          ],
          "text": "Acute bronchitis"
        },
        "text": {
          "status": "generated",
          "div": "<div xmlns=\"http://www.w3.org/1999/xhtml\"><table class=\"hl7__ips\"><tr><td><span class=\"grayedout\">Acute bronchitis</span></td><td><span class=\"nb\">24-Jun-2025 - 03-Jul-2025</span></td><td><span class=\"grayedout\">inactive</span></td></tr></table></div>"
        },
        "onsetDateTime": "2025-06-24",
        "abatementDateTime": "2025-07-03",
        "subject": {
          "reference": "urn:uuid:01469b58-e2ac-4252-ad24-90a408b24235",
          "display": "Noé Naranjo"
        },
        "asserter": {
          "reference": "urn:uuid:233ec99e-1db1-48e1-9bc1-7595ed43586d",
          "display": "Hospital Provincial de Pontevedra"
        }
      }
    },
    {
      "fullUrl": "urn:uuid:80861364-1090-49c4-9353-3911e1427673",
      "resource": {
        "resourceType": "Condition",
        "id": "80861364-1090-49c4-9353-3911e1427673",
        "meta": {
          "profile": [
            "http://hl7.org/fhir/uv/ips/StructureDefinition/Condition-uv-ips"
          ]
        },
        "category": [
          {
            "coding": [
              {
                "code": "problem-list-item",
                "system": "http://terminology.hl7.org/CodeSystem/condition-category",
                "display": "Problem List Item"
              }
            ]
          }
        ],
        "code": {
          "coding": [
            {
              "code": "55680006",
              "system": "http://snomed.info/sct",
              "display": "Drug overdose (disorder)"
            }
          ],
          "text": "Drug overdose"
        },
        "text": {
          "status": "generated",
          "div": "<div xmlns=\"http://www.w3.org/1999/xhtml\"><table class=\"hl7__ips\"><tr><td><span class=\"grayedout\">Drug overdose</span></td><td><span class=\"nb\">25-Dec-2023 - 25-Dec-2023</span></td><td><span class=\"grayedout\">inactive</span></td></tr></table></div>"
        },
        "onsetDateTime": "2023-12-25",
        "abatementDateTime": "2023-12-25",
        "subject": {
          "reference": "urn:uuid:01469b58-e2ac-4252-ad24-90a408b24235",
          "display": "Noé Naranjo"
        },
        "asserter": {
          "reference": "urn:uuid:233ec99e-1db1-48e1-9bc1-7595ed43586d",
          "display": "Hospital Provincial de Pontevedra"
        }
      }
    },
    {
      "fullUrl": "urn:uuid:152366e8-cda9-46ff-839b-437782986a0d",
      "resource": {
        "resourceType": "Condition",
        "id": "152366e8-cda9-46ff-839b-437782986a0d",
        "meta": {
          "profile": [
            "http://hl7.org/fhir/uv/ips/StructureDefinition/Condition-uv-ips"
          ]
        },
        "category": [
          {
            "coding": [
              {
                "code": "problem-list-item",
                "system": "http://terminology.hl7.org/CodeSystem/condition-category",
                "display": "Problem List Item"
              }
            ]
          }
        ],
        "code": {
          "coding": [
            {
              "code": "43878008",
              "system": "http://snomed.info/sct",
              "display": "Streptococcal sore throat (disorder)"
            }
          ],
          "text": "Streptococcal sore throat"
        },
        "text": {
          "status": "generated",
          "div": "<div xmlns=\"http://www.w3.org/1999/xhtml\"><table class=\"hl7__ips\"><tr><td><span class=\"grayedout\">Streptococcal sore throat</span></td><td><span class=\"nb\">28-Aug-2021 - 10-Sep-2021</span></td><td><span class=\"grayedout\">inactive</span></td></tr></table></div>"
        },
        "onsetDateTime": "2021-08-28",
        "abatementDateTime": "2021-09-10",
        "subject": {
          "reference": "urn:uuid:01469b58-e2ac-4252-ad24-90a408b24235",
          "display": "Noé Naranjo"
        },
        "asserter": {
          "reference": "urn:uuid:233ec99e-1db1-48e1-9bc1-7595ed43586d",
          "display": "Hospital Provincial de Pontevedra"
        }
      }
    },
    {
      "fullUrl": "urn:uuid:8b2286c3-b19e-4d71-b355-818606e6613e",
      "resource": {
        "resourceType": "Condition",
        "id": "8b2286c3-b19e-4d71-b355-818606e6613e",
        "meta": {
          "profile": [
            "http://hl7.org/fhir/uv/ips/StructureDefinition/Condition-uv-ips"
          ]
        },
        "category": [
          {
            "coding": [
              {
                "code": "problem-list-item",
                "system": "http://terminology.hl7.org/CodeSystem/condition-category",
                "display": "Problem List Item"
              }
            ]
          }
        ],
        "code": {
          "coding": [
            {
              "code": "65966004",
              "system": "http://snomed.info/sct",
              "display": "Fracture of forearm (disorder)"
            }
          ],
          "text": "Fracture of forearm"
        },
        "text": {
          "status": "generated",
          "div": "<div xmlns=\"http://www.w3.org/1999/xhtml\"><table class=\"hl7__ips\"><tr><td><span class=\"grayedout\">Fracture of forearm</span></td><td><span class=\"nb\">24-Jul-2021 - 18-Nov-2021</span></td><td><span class=\"grayedout\">inactive</span></td></tr></table></div>"
        },
        "onsetDateTime": "2021-07-24",
        "abatementDateTime": "2021-11-18",
        "subject": {
          "reference": "urn:uuid:01469b58-e2ac-4252-ad24-90a408b24235",
          "display": "Noé Naranjo"
        },
        "asserter": {
          "reference": "urn:uuid:233ec99e-1db1-48e1-9bc1-7595ed43586d",
          "display": "Hospital Provincial de Pontevedra"
        }
      }
    },
    {
      "fullUrl": "urn:uuid:f30a4325-6d40-4d1e-94bd-8a03733d6f51",
      "resource": {
        "resourceType": "Condition",
        "id": "f30a4325-6d40-4d1e-94bd-8a03733d6f51",
        "meta": {
          "profile": [
            "http://hl7.org/fhir/uv/ips/StructureDefinition/Condition-uv-ips"
          ]
        },
        "category": [
          {
            "coding": [
              {
                "code": "problem-list-item",
                "system": "http://terminology.hl7.org/CodeSystem/condition-category",
                "display": "Problem List Item"
              }
            ]
          }
        ],
        "code": {
          "coding": [
            {
              "code": "125605004",
              "system": "http://snomed.info/sct",
              "display": "Fracture of bone (disorder)"
            }
          ],
          "text": "Fracture of bone"
        },
        "text": {
          "status": "generated",
          "div": "<div xmlns=\"http://www.w3.org/1999/xhtml\"><table class=\"hl7__ips\"><tr><td><span class=\"grayedout\">Fracture of bone</span></td><td><span class=\"nb\">24-Jul-2021 - 18-Nov-2021</span></td><td><span class=\"grayedout\">inactive</span></td></tr></table></div>"
        },
        "onsetDateTime": "2021-07-24",
        "abatementDateTime": "2021-11-18",
        "subject": {
          "reference": "urn:uuid:01469b58-e2ac-4252-ad24-90a408b24235",
          "display": "Noé Naranjo"
        },
        "asserter": {
          "reference": "urn:uuid:233ec99e-1db1-48e1-9bc1-7595ed43586d",
          "display": "Hospital Provincial de Pontevedra"
        }
      }
    },
    {
      "fullUrl": "urn:uuid:bd17377f-ae90-41fd-9b8c-9bc013552f47",
      "resource": {
        "resourceType": "Condition",
        "id": "bd17377f-ae90-41fd-9b8c-9bc013552f47",
        "meta": {
          "profile": [
            "http://hl7.org/fhir/uv/ips/StructureDefinition/Condition-uv-ips"
          ]
        },
        "category": [
          {
            "coding": [
              {
                "code": "problem-list-item",
                "system": "http://terminology.hl7.org/CodeSystem/condition-category",
                "display": "Problem List Item"
              }
            ]
          }
        ],
        "code": {
          "coding": [
            {
              "code": "443165006",
              "system": "http://snomed.info/sct",
              "display": "Osteoporotic fracture of bone (disorder)"
            }
          ],
          "text": "Osteoporotic fracture"
        },
        "text": {
          "status": "generated",
          "div": "<div xmlns=\"http://www.w3.org/1999/xhtml\"><table class=\"hl7__ips\"><tr><td><span class=\"grayedout\">Osteoporotic fracture</span></td><td><span class=\"nb\">24-Jul-2021 - 18-Nov-2021</span></td><td><span class=\"grayedout\">inactive</span></td></tr></table></div>"
        },
        "onsetDateTime": "2021-07-24",
        "abatementDateTime": "2021-11-18",
        "subject": {
          "reference": "urn:uuid:01469b58-e2ac-4252-ad24-90a408b24235",
          "display": "Noé Naranjo"
        },
        "asserter": {
          "reference": "urn:uuid:233ec99e-1db1-48e1-9bc1-7595ed43586d",
          "display": "Hospital Provincial de Pontevedra"
        }
      }
    },
    {
      "fullUrl": "urn:uuid:788a94f8-3aec-4636-aba3-f39e81e98d3f",
      "resource": {
        "resourceType": "Condition",
        "id": "788a94f8-3aec-4636-aba3-f39e81e98d3f",
        "meta": {
          "profile": [
            "http://hl7.org/fhir/uv/ips/StructureDefinition/Condition-uv-ips"
          ]
        },
        "category": [
          {
            "coding": [
              {
                "code": "problem-list-item",
                "system": "http://terminology.hl7.org/CodeSystem/condition-category",
                "display": "Problem List Item"
              }
            ]
          }
        ],
        "code": {
          "coding": [
            {
              "code": "65966004",
              "system": "http://snomed.info/sct",
              "display": "Fracture of forearm (disorder)"
            }
          ],
          "text": "Fracture of forearm"
        },
        "text": {
          "status": "generated",
          "div": "<div xmlns=\"http://www.w3.org/1999/xhtml\"><table class=\"hl7__ips\"><tr><td><span class=\"grayedout\">Fracture of forearm</span></td><td><span class=\"nb\">31-Mar-2018 - 26-May-2018</span></td><td><span class=\"grayedout\">inactive</span></td></tr></table></div>"
        },
        "onsetDateTime": "2018-03-31",
        "abatementDateTime": "2018-05-26",
        "subject": {
          "reference": "urn:uuid:01469b58-e2ac-4252-ad24-90a408b24235",
          "display": "Noé Naranjo"
        },
        "asserter": {
          "reference": "urn:uuid:233ec99e-1db1-48e1-9bc1-7595ed43586d",
          "display": "Hospital Provincial de Pontevedra"
        }
      }
    },
    {
      "fullUrl": "urn:uuid:96c071a4-91cf-402e-9820-f7dc8ed195bf",
      "resource": {
        "resourceType": "Condition",
        "id": "96c071a4-91cf-402e-9820-f7dc8ed195bf",
        "meta": {
          "profile": [
            "http://hl7.org/fhir/uv/ips/StructureDefinition/Condition-uv-ips"
          ]
        },
        "category": [
          {
            "coding": [
              {
                "code": "problem-list-item",
                "system": "http://terminology.hl7.org/CodeSystem/condition-category",
                "display": "Problem List Item"
              }
            ]
          }
        ],
        "code": {
          "coding": [
            {
              "code": "125605004",
              "system": "http://snomed.info/sct",
              "display": "Fracture of bone (disorder)"
            }
          ],
          "text": "Fracture of bone"
        },
        "text": {
          "status": "generated",
          "div": "<div xmlns=\"http://www.w3.org/1999/xhtml\"><table class=\"hl7__ips\"><tr><td><span class=\"grayedout\">Fracture of bone</span></td><td><span class=\"nb\">31-Mar-2018 - 26-May-2018</span></td><td><span class=\"grayedout\">inactive</span></td></tr></table></div>"
        },
        "onsetDateTime": "2018-03-31",
        "abatementDateTime": "2018-05-26",
        "subject": {
          "reference": "urn:uuid:01469b58-e2ac-4252-ad24-90a408b24235",
          "display": "Noé Naranjo"
        },
        "asserter": {
          "reference": "urn:uuid:233ec99e-1db1-48e1-9bc1-7595ed43586d",
          "display": "Hospital Provincial de Pontevedra"
        }
      }
    },
    {
      "fullUrl": "urn:uuid:5ff2f682-7fa7-475d-8ef1-881474f7285e",
      "resource": {
        "resourceType": "Condition",
        "id": "5ff2f682-7fa7-475d-8ef1-881474f7285e",
        "meta": {
          "profile": [
            "http://hl7.org/fhir/uv/ips/StructureDefinition/Condition-uv-ips"
          ]
        },
        "category": [
          {
            "coding": [
              {
                "code": "problem-list-item",
                "system": "http://terminology.hl7.org/CodeSystem/condition-category",
                "display": "Problem List Item"
              }
            ]
          }
        ],
        "code": {
          "coding": [
            {
              "code": "10509002",
              "system": "http://snomed.info/sct",
              "display": "Acute bronchitis (disorder)"
            }
          ],
          "text": "Acute bronchitis"
        },
        "text": {
          "status": "generated",
          "div": "<div xmlns=\"http://www.w3.org/1999/xhtml\"><table class=\"hl7__ips\"><tr><td><span class=\"grayedout\">Acute bronchitis</span></td><td><span class=\"nb\">10-Feb-2018 - 01-Mar-2018</span></td><td><span class=\"grayedout\">inactive</span></td></tr></table></div>"
        },
        "onsetDateTime": "2018-02-10",
        "abatementDateTime": "2018-03-01",
        "subject": {
          "reference": "urn:uuid:01469b58-e2ac-4252-ad24-90a408b24235",
          "display": "Noé Naranjo"
        },
        "asserter": {
          "reference": "urn:uuid:233ec99e-1db1-48e1-9bc1-7595ed43586d",
          "display": "Hospital Provincial de Pontevedra"
        }
      }
    },
    {
      "fullUrl": "urn:uuid:172ec977-f28e-4a87-8ffa-049309ff519d",
      "resource": {
        "resourceType": "Condition",
        "id": "172ec977-f28e-4a87-8ffa-049309ff519d",
        "meta": {
          "profile": [
            "http://hl7.org/fhir/uv/ips/StructureDefinition/Condition-uv-ips"
          ]
        },
        "category": [
          {
            "coding": [
              {
                "code": "problem-list-item",
                "system": "http://terminology.hl7.org/CodeSystem/condition-category",
                "display": "Problem List Item"
              }
            ]
          }
        ],
        "code": {
          "coding": [
            {
              "code": "55680006",
              "system": "http://snomed.info/sct",
              "display": "Drug overdose (disorder)"
            }
          ],
          "text": "Drug overdose"
        },
        "text": {
          "status": "generated",
          "div": "<div xmlns=\"http://www.w3.org/1999/xhtml\"><table class=\"hl7__ips\"><tr><td><span class=\"grayedout\">Drug overdose</span></td><td><span class=\"nb\">04-Jun-2016 - 04-Jun-2016</span></td><td><span class=\"grayedout\">inactive</span></td></tr></table></div>"
        },
        "onsetDateTime": "2016-06-04",
        "abatementDateTime": "2016-06-04",
        "subject": {
          "reference": "urn:uuid:01469b58-e2ac-4252-ad24-90a408b24235",
          "display": "Noé Naranjo"
        },
        "asserter": {
          "reference": "urn:uuid:233ec99e-1db1-48e1-9bc1-7595ed43586d",
          "display": "Hospital Provincial de Pontevedra"
        }
      }
    },
    {
      "fullUrl": "urn:uuid:cf45a4a0-29c1-46ee-a32a-320111b637b4",
      "resource": {
        "resourceType": "Condition",
        "id": "cf45a4a0-29c1-46ee-a32a-320111b637b4",
        "meta": {
          "profile": [
            "http://hl7.org/fhir/uv/ips/StructureDefinition/Condition-uv-ips"
          ]
        },
        "category": [
          {
            "coding": [
              {
                "code": "problem-list-item",
                "system": "http://terminology.hl7.org/CodeSystem/condition-category",
                "display": "Problem List Item"
              }
            ]
          }
        ],
        "code": {
          "coding": [
            {
              "code": "10509002",
              "system": "http://snomed.info/sct",
              "display": "Acute bronchitis (disorder)"
            }
          ],
          "text": "Acute bronchitis"
        },
        "text": {
          "status": "generated",
          "div": "<div xmlns=\"http://www.w3.org/1999/xhtml\"><table class=\"hl7__ips\"><tr><td><span class=\"grayedout\">Acute bronchitis</span></td><td><span class=\"nb\">24-Oct-2015 - 12-Nov-2015</span></td><td><span class=\"grayedout\">inactive</span></td></tr></table></div>"
        },
        "onsetDateTime": "2015-10-24",
        "abatementDateTime": "2015-11-12",
        "subject": {
          "reference": "urn:uuid:01469b58-e2ac-4252-ad24-90a408b24235",
          "display": "Noé Naranjo"
        },
        "asserter": {
          "reference": "urn:uuid:233ec99e-1db1-48e1-9bc1-7595ed43586d",
          "display": "Hospital Provincial de Pontevedra"
        }
      }
    },
    {
      "fullUrl": "urn:uuid:6f5f61ea-277f-44e1-b6d7-0afb22b092d3",
      "resource": {
        "resourceType": "MedicationStatement",
        "id": "6f5f61ea-277f-44e1-b6d7-0afb22b092d3",
        "meta": {
          "profile": [
            "http://hl7.eu/fhir/eps/StructureDefinition/MedicationStatement-eu-eps"
          ]
        },
        "effectivePeriod": {
          "extension": [
            {
              "url": "http://hl7.org/fhir/StructureDefinition/data-absent-reason",
              "valueCode": "unknown"
            }
          ]
        },
        "status": "active",
        "medicationCodeableConcept": {
          "coding": [
            {
              "code": "787481004",
              "system": "http://snomed.info/sct",
              "display": "No known medications (situation)"
            }
          ]
        },
        "subject": {
          "reference": "urn:uuid:01469b58-e2ac-4252-ad24-90a408b24235",
          "display": "Noé Naranjo"
        }
      }
    },
    {
      "fullUrl": "urn:uuid:cc6b3c78-013d-4419-ad10-364d49cc86ee",
      "resource": {
        "resourceType": "Immunization",
        "id": "cc6b3c78-013d-4419-ad10-364d49cc86ee",
        "meta": {
          "profile": [
            "http://hl7.org/fhir/uv/ips/StructureDefinition/Immunization-uv-ips"
          ]
        },
        "vaccineCode": {
          "coding": [
            {
              "code": "1181000221105",
              "system": "http://snomed.info/sct",
              "display": "Vaccine product containing Influenza virus antigen"
            },
            {
              "code": "J07BB02",
              "system": "http://www.whocc.no/atc",
              "display": "Influenza, inactivated, split virus"
            }
          ],
          "text": "Influenza virus antigen only vaccine product"
        },
        "site": {
          "coding": [
            {
              "code": "244979005",
              "system": "http://snomed.info/sct",
              "display": "Entire muscle of upper arm"
            }
          ],
          "text": "Entire muscle of upper arm"
        },
        "route": {
          "coding": [
            {
              "code": "78421000",
              "system": "http://snomed.info/sct",
              "display": "Intramuscular route"
            }
          ],
          "text": "Intramuscular route"
        },
        "text": {
          "status": "generated",
          "div": "<div xmlns=\"http://www.w3.org/1999/xhtml\"><table class=\"hl7__ips\"><tr><td>Influenza virus antigen only vaccine product</td><td><span class=\"nb\">17-Aug-2024</span></td></tr></table></div>"
        },
        "status": "completed",
        "patient": {
          "reference": "urn:uuid:01469b58-e2ac-4252-ad24-90a408b24235",
          "display": "Noé Naranjo"
        },
        "occurrenceDateTime": "2024-08-17",
        "lotNumber": "SE-ft15",
        "expirationDate": "2024-12-12"
      }
    },
    {
      "fullUrl": "urn:uuid:94b0e989-03b0-46e3-8e87-7668f6bf51a6",
      "resource": {
        "resourceType": "Immunization",
        "id": "94b0e989-03b0-46e3-8e87-7668f6bf51a6",
        "meta": {
          "profile": [
            "http://hl7.org/fhir/uv/ips/StructureDefinition/Immunization-uv-ips"
          ]
        },
        "vaccineCode": {
          "coding": [
            {
              "code": "1119349007",
              "system": "http://snomed.info/sct",
              "display": "Vaccine product containing SARS-CoV-2 mRNA"
            },
            {
              "code": "J07BX03",
              "system": "http://www.whocc.no/atc",
              "display": "COVID-19 mRNA vaccines"
            }
          ],
          "text": "SARS-CoV-2 mRNA vaccine"
        },
        "site": {
          "coding": [
            {
              "code": "244979005",
              "system": "http://snomed.info/sct",
              "display": "Entire muscle of upper arm"
            }
          ],
          "text": "Entire muscle of upper arm"
        },
        "route": {
          "coding": [
            {
              "code": "78421000",
              "system": "http://snomed.info/sct",
              "display": "Intramuscular route"
            }
          ],
          "text": "Intramuscular route"
        },
        "text": {
          "status": "generated",
          "div": "<div xmlns=\"http://www.w3.org/1999/xhtml\"><table class=\"hl7__ips\"><tr><td>SARS-CoV-2 mRNA vaccine</td><td><span class=\"nb\">08-May-2021</span></td></tr></table></div>"
        },
        "status": "completed",
        "patient": {
          "reference": "urn:uuid:01469b58-e2ac-4252-ad24-90a408b24235",
          "display": "Noé Naranjo"
        },
        "occurrenceDateTime": "2021-05-08",
        "lotNumber": "CI-YkvAnPR",
        "expirationDate": "2021-08-31"
      }
    },
    {
      "fullUrl": "urn:uuid:c104cedd-a0a8-4b04-b030-1d2e04fc2ff6",
      "resource": {
        "resourceType": "Immunization",
        "id": "c104cedd-a0a8-4b04-b030-1d2e04fc2ff6",
        "meta": {
          "profile": [
            "http://hl7.org/fhir/uv/ips/StructureDefinition/Immunization-uv-ips"
          ]
        },
        "vaccineCode": {
          "coding": [
            {
              "code": "777725002",
              "system": "http://snomed.info/sct",
              "display": "Vaccine product containing only Clostridium tetani toxoid antigen adsorbed"
            },
            {
              "code": "J07AM51",
              "system": "http://www.whocc.no/atc",
              "display": "Diphtheria-tetanus vaccines, adult type"
            }
          ],
          "text": "Clostridium tetani toxoid antigen adsorbed only vaccine product"
        },
        "site": {
          "coding": [
            {
              "code": "244979005",
              "system": "http://snomed.info/sct",
              "display": "Entire muscle of upper arm"
            }
          ],
          "text": "Entire muscle of upper arm"
        },
        "route": {
          "coding": [
            {
              "code": "78421000",
              "system": "http://snomed.info/sct",
              "display": "Intramuscular route"
            }
          ],
          "text": "Intramuscular route"
        },
        "text": {
          "status": "generated",
          "div": "<div xmlns=\"http://www.w3.org/1999/xhtml\"><table class=\"hl7__ips\"><tr><td>Clostridium tetani toxoid antigen adsorbed only vaccine product</td><td><span class=\"nb\">08-Feb-2020</span></td></tr></table></div>"
        },
        "status": "completed",
        "patient": {
          "reference": "urn:uuid:01469b58-e2ac-4252-ad24-90a408b24235",
          "display": "Noé Naranjo"
        },
        "occurrenceDateTime": "2020-02-08",
        "lotNumber": "RA-wyfweVrzh",
        "expirationDate": "2020-04-30"
      }
    },
    {
      "fullUrl": "urn:uuid:6e8f9807-1188-44ef-aa02-8162572af420",
      "resource": {
        "resourceType": "Procedure",
        "id": "6e8f9807-1188-44ef-aa02-8162572af420",
        "meta": {
          "profile": [
            "http://hl7.org/fhir/uv/ips/StructureDefinition/Procedure-uv-ips"
          ]
        },
        "code": {
          "coding": [
            {
              "code": "430193006",
              "system": "http://snomed.info/sct",
              "display": "Medication Reconciliation (procedure)"
            }
          ],
          "text": "Medication reconciliation"
        },
        "text": {
          "status": "generated",
          "div": "<div xmlns=\"http://www.w3.org/1999/xhtml\"><table class=\"hl7__ips\"><tr><td>Medication reconciliation</td><td><span class=\"nb\">05-Jul-2025</span></td><td>-</td></tr></table></div>"
        },
        "status": "completed",
        "performedDateTime": "2025-07-05",
        "subject": {
          "reference": "urn:uuid:01469b58-e2ac-4252-ad24-90a408b24235",
          "display": "Noé Naranjo"
        }
      }
    },
    {
      "fullUrl": "urn:uuid:376e64f4-8348-4c10-8703-7bfd06a89904",
      "resource": {
        "resourceType": "Procedure",
        "id": "376e64f4-8348-4c10-8703-7bfd06a89904",
        "meta": {
          "profile": [
            "http://hl7.org/fhir/uv/ips/StructureDefinition/Procedure-uv-ips"
          ]
        },
        "code": {
          "coding": [
            {
              "code": "710824005",
              "system": "http://snomed.info/sct",
              "display": "Assessment of health and social care needs (procedure)"
            }
          ],
          "text": "Assessment of health and social care needs"
        },
        "text": {
          "status": "generated",
          "div": "<div xmlns=\"http://www.w3.org/1999/xhtml\"><table class=\"hl7__ips\"><tr><td>Assessment of health and social care needs</td><td><span class=\"nb\">05-Jul-2025</span></td><td>-</td></tr></table></div>"
        },
        "status": "completed",
        "performedDateTime": "2025-07-05",
        "subject": {
          "reference": "urn:uuid:01469b58-e2ac-4252-ad24-90a408b24235",
          "display": "Noé Naranjo"
        }
      }
    },
    {
      "fullUrl": "urn:uuid:adc64c12-f1db-46c7-8349-608128985f12",
      "resource": {
        "resourceType": "Procedure",
        "id": "adc64c12-f1db-46c7-8349-608128985f12",
        "meta": {
          "profile": [
            "http://hl7.org/fhir/uv/ips/StructureDefinition/Procedure-uv-ips"
          ]
        },
        "code": {
          "coding": [
            {
              "code": "762993000",
              "system": "http://snomed.info/sct",
              "display": "Assessment using Morse Fall Scale (procedure)"
            }
          ],
          "text": "Assessment using Morse Fall Scale"
        },
        "text": {
          "status": "generated",
          "div": "<div xmlns=\"http://www.w3.org/1999/xhtml\"><table class=\"hl7__ips\"><tr><td>Assessment using Morse Fall Scale</td><td><span class=\"nb\">05-Jul-2025</span></td><td>-</td></tr></table></div>"
        },
        "status": "completed",
        "performedDateTime": "2025-07-05",
        "subject": {
          "reference": "urn:uuid:01469b58-e2ac-4252-ad24-90a408b24235",
          "display": "Noé Naranjo"
        }
      }
    },
    {
      "fullUrl": "urn:uuid:c949c46a-bda1-454f-877a-0f73044b37e3",
      "resource": {
        "resourceType": "Procedure",
        "id": "c949c46a-bda1-454f-877a-0f73044b37e3",
        "meta": {
          "profile": [
            "http://hl7.org/fhir/uv/ips/StructureDefinition/Procedure-uv-ips"
          ]
        },
        "code": {
          "coding": [
            {
              "code": "866148006",
              "system": "http://snomed.info/sct",
              "display": "Screening for domestic abuse (procedure)"
            }
          ],
          "text": "Screening for domestic abuse"
        },
        "text": {
          "status": "generated",
          "div": "<div xmlns=\"http://www.w3.org/1999/xhtml\"><table class=\"hl7__ips\"><tr><td>Screening for domestic abuse</td><td><span class=\"nb\">08-Mar-2025</span></td><td>-</td></tr></table></div>"
        },
        "status": "completed",
        "performedDateTime": "2025-03-08",
        "subject": {
          "reference": "urn:uuid:01469b58-e2ac-4252-ad24-90a408b24235",
          "display": "Noé Naranjo"
        }
      }
    },
    {
      "fullUrl": "urn:uuid:51bcfce9-2037-49df-9797-79bf1b458fd5",
      "resource": {
        "resourceType": "Procedure",
        "id": "51bcfce9-2037-49df-9797-79bf1b458fd5",
        "meta": {
          "profile": [
            "http://hl7.org/fhir/uv/ips/StructureDefinition/Procedure-uv-ips"
          ]
        },
        "code": {
          "coding": [
            {
              "code": "171207006",
              "system": "http://snomed.info/sct",
              "display": "Depression screening (procedure)"
            }
          ],
          "text": "Depression screening"
        },
        "text": {
          "status": "generated",
          "div": "<div xmlns=\"http://www.w3.org/1999/xhtml\"><table class=\"hl7__ips\"><tr><td>Depression screening</td><td><span class=\"nb\">08-Feb-2025</span></td><td>-</td></tr></table></div>"
        },
        "status": "completed",
        "performedDateTime": "2025-02-08",
        "subject": {
          "reference": "urn:uuid:01469b58-e2ac-4252-ad24-90a408b24235",
          "display": "Noé Naranjo"
        }
      }
    },
    {
      "fullUrl": "urn:uuid:9941d244-0a3f-4cbc-bbdc-8ce0dac1f295",
      "resource": {
        "resourceType": "Procedure",
        "id": "9941d244-0a3f-4cbc-bbdc-8ce0dac1f295",
        "meta": {
          "profile": [
            "http://hl7.org/fhir/uv/ips/StructureDefinition/Procedure-uv-ips"
          ]
        },
        "code": {
          "coding": [
            {
              "code": "710841007",
              "system": "http://snomed.info/sct",
              "display": "Assessment of anxiety (procedure)"
            }
          ],
          "text": "Assessment of anxiety"
        },
        "text": {
          "status": "generated",
          "div": "<div xmlns=\"http://www.w3.org/1999/xhtml\"><table class=\"hl7__ips\"><tr><td>Assessment of anxiety</td><td><span class=\"nb\">08-Feb-2025</span></td><td>-</td></tr></table></div>"
        },
        "status": "completed",
        "performedDateTime": "2025-02-08",
        "subject": {
          "reference": "urn:uuid:01469b58-e2ac-4252-ad24-90a408b24235",
          "display": "Noé Naranjo"
        }
      }
    },
    {
      "fullUrl": "urn:uuid:afbf0ba2-b2de-45d2-8178-568df169c8af",
      "resource": {
        "resourceType": "Procedure",
        "id": "afbf0ba2-b2de-45d2-8178-568df169c8af",
        "meta": {
          "profile": [
            "http://hl7.org/fhir/uv/ips/StructureDefinition/Procedure-uv-ips"
          ]
        },
        "code": {
          "coding": [
            {
              "code": "454711000124102",
              "system": "http://snomed.info/sct",
              "display": "Depression screening using Patient Health Questionnaire Two-Item score (procedure)"
            }
          ]
        },
        "text": {
          "status": "generated",
          "div": "<div xmlns=\"http://www.w3.org/1999/xhtml\"><table class=\"hl7__ips\"><tr><td>Depression screening using Patient Health Questionnaire Two-Item score (procedure)</td><td><span class=\"nb\">08-Feb-2025</span></td><td>-</td></tr></table></div>"
        },
        "status": "completed",
        "performedDateTime": "2025-02-08",
        "subject": {
          "reference": "urn:uuid:01469b58-e2ac-4252-ad24-90a408b24235",
          "display": "Noé Naranjo"
        }
      }
    },
    {
      "fullUrl": "urn:uuid:c40e2d18-fab9-4070-adbd-258525863057",
      "resource": {
        "resourceType": "Procedure",
        "id": "c40e2d18-fab9-4070-adbd-258525863057",
        "meta": {
          "profile": [
            "http://hl7.org/fhir/uv/ips/StructureDefinition/Procedure-uv-ips"
          ]
        },
        "code": {
          "coding": [
            {
              "code": "58000006",
              "system": "http://snomed.info/sct",
              "display": "Patient discharge (procedure)"
            }
          ],
          "text": "Patient discharge"
        },
        "text": {
          "status": "generated",
          "div": "<div xmlns=\"http://www.w3.org/1999/xhtml\"><table class=\"hl7__ips\"><tr><td>Patient discharge</td><td><span class=\"nb\">24-Mar-2024</span></td><td>-</td></tr></table></div>"
        },
        "status": "completed",
        "performedDateTime": "2024-03-24",
        "subject": {
          "reference": "urn:uuid:01469b58-e2ac-4252-ad24-90a408b24235",
          "display": "Noé Naranjo"
        }
      }
    },
    {
      "fullUrl": "urn:uuid:8e89a43c-4180-4cc0-841c-04bdf7a7f0c0",
      "resource": {
        "resourceType": "Procedure",
        "id": "8e89a43c-4180-4cc0-841c-04bdf7a7f0c0",
        "meta": {
          "profile": [
            "http://hl7.org/fhir/uv/ips/StructureDefinition/Procedure-uv-ips"
          ]
        },
        "code": {
          "coding": [
            {
              "code": "385763009",
              "system": "http://snomed.info/sct",
              "display": "Hospice care (regime/therapy)"
            }
          ],
          "text": "Hospice care"
        },
        "text": {
          "status": "generated",
          "div": "<div xmlns=\"http://www.w3.org/1999/xhtml\"><table class=\"hl7__ips\"><tr><td>Hospice care</td><td><span class=\"nb\">23-Mar-2024</span></td><td>-</td></tr></table></div>"
        },
        "status": "completed",
        "performedDateTime": "2024-03-23",
        "subject": {
          "reference": "urn:uuid:01469b58-e2ac-4252-ad24-90a408b24235",
          "display": "Noé Naranjo"
        }
      }
    },
    {
      "fullUrl": "urn:uuid:04c88719-8ac0-440f-90e3-b6af506c4a00",
      "resource": {
        "resourceType": "Procedure",
        "id": "04c88719-8ac0-440f-90e3-b6af506c4a00",
        "meta": {
          "profile": [
            "http://hl7.org/fhir/uv/ips/StructureDefinition/Procedure-uv-ips"
          ]
        },
        "code": {
          "coding": [
            {
              "code": "185087000",
              "system": "http://snomed.info/sct",
              "display": "Notifications (procedure)"
            }
          ],
          "text": "Notifications"
        },
        "text": {
          "status": "generated",
          "div": "<div xmlns=\"http://www.w3.org/1999/xhtml\"><table class=\"hl7__ips\"><tr><td>Notifications</td><td><span class=\"nb\">10-Feb-2024</span></td><td>-</td></tr></table></div>"
        },
        "status": "completed",
        "performedDateTime": "2024-02-10",
        "subject": {
          "reference": "urn:uuid:01469b58-e2ac-4252-ad24-90a408b24235",
          "display": "Noé Naranjo"
        }
      }
    },
    {
      "fullUrl": "urn:uuid:13c3788a-5be6-4287-8886-e312610873fd",
      "resource": {
        "resourceType": "Procedure",
        "id": "13c3788a-5be6-4287-8886-e312610873fd",
        "meta": {
          "profile": [
            "http://hl7.org/fhir/uv/ips/StructureDefinition/Procedure-uv-ips"
          ]
        },
        "code": {
          "coding": [
            {
              "code": "310417005",
              "system": "http://snomed.info/sct",
              "display": "Certification procedure (procedure)"
            }
          ],
          "text": "Certification procedure"
        },
        "text": {
          "status": "generated",
          "div": "<div xmlns=\"http://www.w3.org/1999/xhtml\"><table class=\"hl7__ips\"><tr><td>Certification procedure</td><td><span class=\"nb\">10-Feb-2024</span></td><td>-</td></tr></table></div>"
        },
        "status": "completed",
        "performedDateTime": "2024-02-10",
        "subject": {
          "reference": "urn:uuid:01469b58-e2ac-4252-ad24-90a408b24235",
          "display": "Noé Naranjo"
        }
      }
    },
    {
      "fullUrl": "urn:uuid:c98f68ff-51af-4a1a-918f-3fd474ff07fd",
      "resource": {
        "resourceType": "Procedure",
        "id": "c98f68ff-51af-4a1a-918f-3fd474ff07fd",
        "meta": {
          "profile": [
            "http://hl7.org/fhir/uv/ips/StructureDefinition/Procedure-uv-ips"
          ]
        },
        "code": {
          "coding": [
            {
              "code": "315639002",
              "system": "http://snomed.info/sct",
              "display": "Initial patient assessment (procedure)"
            }
          ],
          "text": "Initial patient assessment"
        },
        "text": {
          "status": "generated",
          "div": "<div xmlns=\"http://www.w3.org/1999/xhtml\"><table class=\"hl7__ips\"><tr><td>Initial patient assessment</td><td><span class=\"nb\">10-Feb-2024</span></td><td>-</td></tr></table></div>"
        },
        "status": "completed",
        "performedDateTime": "2024-02-10",
        "subject": {
          "reference": "urn:uuid:01469b58-e2ac-4252-ad24-90a408b24235",
          "display": "Noé Naranjo"
        }
      }
    },
    {
      "fullUrl": "urn:uuid:f1f2d0ac-7baa-43b7-9815-1342a65e0a61",
      "resource": {
        "resourceType": "Procedure",
        "id": "f1f2d0ac-7baa-43b7-9815-1342a65e0a61",
        "meta": {
          "profile": [
            "http://hl7.org/fhir/uv/ips/StructureDefinition/Procedure-uv-ips"
          ]
        },
        "code": {
          "coding": [
            {
              "code": "370789001",
              "system": "http://snomed.info/sct",
              "display": "Development of individualized plan of care (procedure)"
            }
          ],
          "text": "Development of individualized plan of care"
        },
        "text": {
          "status": "generated",
          "div": "<div xmlns=\"http://www.w3.org/1999/xhtml\"><table class=\"hl7__ips\"><tr><td>Development of individualized plan of care</td><td><span class=\"nb\">10-Feb-2024</span></td><td>-</td></tr></table></div>"
        },
        "status": "completed",
        "performedDateTime": "2024-02-10",
        "subject": {
          "reference": "urn:uuid:01469b58-e2ac-4252-ad24-90a408b24235",
          "display": "Noé Naranjo"
        }
      }
    },
    {
      "fullUrl": "urn:uuid:ab3c730d-be42-409f-a9bb-94fd97286364",
      "resource": {
        "resourceType": "Procedure",
        "id": "ab3c730d-be42-409f-a9bb-94fd97286364",
        "meta": {
          "profile": [
            "http://hl7.org/fhir/uv/ips/StructureDefinition/Procedure-uv-ips"
          ]
        },
        "code": {
          "coding": [
            {
              "code": "715252007",
              "system": "http://snomed.info/sct",
              "display": "Depression screening using Patient Health Questionnaire Nine Item score (procedure)"
            }
          ],
          "text": "Depression screening using PHQ-9 (Patient Health Questionnaire 9) score"
        },
        "text": {
          "status": "generated",
          "div": "<div xmlns=\"http://www.w3.org/1999/xhtml\"><table class=\"hl7__ips\"><tr><td>Depression screening using PHQ-9 (Patient Health Questionnaire 9) score</td><td><span class=\"nb\">30-Apr-2022</span></td><td>-</td></tr></table></div>"
        },
        "status": "completed",
        "performedDateTime": "2022-04-30",
        "subject": {
          "reference": "urn:uuid:01469b58-e2ac-4252-ad24-90a408b24235",
          "display": "Noé Naranjo"
        }
      }
    },
    {
      "fullUrl": "urn:uuid:34f0f23e-2500-42bb-aabe-d39de25cddc7",
      "resource": {
        "resourceType": "Procedure",
        "id": "34f0f23e-2500-42bb-aabe-d39de25cddc7",
        "meta": {
          "profile": [
            "http://hl7.org/fhir/uv/ips/StructureDefinition/Procedure-uv-ips"
          ]
        },
        "code": {
          "coding": [
            {
              "code": "225386006",
              "system": "http://snomed.info/sct",
              "display": "Pre-discharge assessment (procedure)"
            }
          ],
          "text": "Pre-discharge assessment"
        },
        "text": {
          "status": "generated",
          "div": "<div xmlns=\"http://www.w3.org/1999/xhtml\"><table class=\"hl7__ips\"><tr><td>Pre-discharge assessment</td><td><span class=\"nb\">15-Aug-2021</span></td><td>-</td></tr></table></div>"
        },
        "status": "completed",
        "performedDateTime": "2021-08-15",
        "subject": {
          "reference": "urn:uuid:01469b58-e2ac-4252-ad24-90a408b24235",
          "display": "Noé Naranjo"
        }
      }
    },
    {
      "fullUrl": "urn:uuid:7a762980-7b43-4e88-b02e-c7eb5bf86ca2",
      "resource": {
        "resourceType": "Procedure",
        "id": "7a762980-7b43-4e88-b02e-c7eb5bf86ca2",
        "meta": {
          "profile": [
            "http://hl7.org/fhir/uv/ips/StructureDefinition/Procedure-uv-ips"
          ]
        },
        "code": {
          "coding": [
            {
              "code": "449381000124108",
              "system": "http://snomed.info/sct",
              "display": "Discharge from skilled nursing facility (procedure)"
            }
          ]
        },
        "text": {
          "status": "generated",
          "div": "<div xmlns=\"http://www.w3.org/1999/xhtml\"><table class=\"hl7__ips\"><tr><td>Discharge from skilled nursing facility (procedure)</td><td><span class=\"nb\">15-Aug-2021</span></td><td>-</td></tr></table></div>"
        },
        "status": "completed",
        "performedDateTime": "2021-08-15",
        "subject": {
          "reference": "urn:uuid:01469b58-e2ac-4252-ad24-90a408b24235",
          "display": "Noé Naranjo"
        }
      }
    },
    {
      "fullUrl": "urn:uuid:f4ae1888-9add-4092-bc95-46486a669a6b",
      "resource": {
        "resourceType": "Procedure",
        "id": "f4ae1888-9add-4092-bc95-46486a669a6b",
        "meta": {
          "profile": [
            "http://hl7.org/fhir/uv/ips/StructureDefinition/Procedure-uv-ips"
          ]
        },
        "code": {
          "coding": [
            {
              "code": "84478008",
              "system": "http://snomed.info/sct",
              "display": "Occupational therapy (regime/therapy)"
            }
          ],
          "text": "Occupational therapy"
        },
        "text": {
          "status": "generated",
          "div": "<div xmlns=\"http://www.w3.org/1999/xhtml\"><table class=\"hl7__ips\"><tr><td>Occupational therapy</td><td><span class=\"nb\">14-Aug-2021</span></td><td>-</td></tr></table></div>"
        },
        "status": "completed",
        "performedDateTime": "2021-08-14",
        "subject": {
          "reference": "urn:uuid:01469b58-e2ac-4252-ad24-90a408b24235",
          "display": "Noé Naranjo"
        }
      }
    },
    {
      "fullUrl": "urn:uuid:2a14213f-2418-4f90-aeb9-909d7e2b831b",
      "resource": {
        "resourceType": "Procedure",
        "id": "2a14213f-2418-4f90-aeb9-909d7e2b831b",
        "meta": {
          "profile": [
            "http://hl7.org/fhir/uv/ips/StructureDefinition/Procedure-uv-ips"
          ]
        },
        "code": {
          "coding": [
            {
              "code": "410401003",
              "system": "http://snomed.info/sct",
              "display": "Nursing care/supplementary surveillance (regime/therapy)"
            }
          ],
          "text": "Nursing care/supplementary surveillance"
        },
        "text": {
          "status": "generated",
          "div": "<div xmlns=\"http://www.w3.org/1999/xhtml\"><table class=\"hl7__ips\"><tr><td>Nursing care/supplementary surveillance</td><td><span class=\"nb\">14-Aug-2021</span></td><td>-</td></tr></table></div>"
        },
        "status": "completed",
        "performedDateTime": "2021-08-14",
        "subject": {
          "reference": "urn:uuid:01469b58-e2ac-4252-ad24-90a408b24235",
          "display": "Noé Naranjo"
        }
      }
    },
    {
      "fullUrl": "urn:uuid:4066d6c4-ab04-4e2c-84c6-d914a3063af9",
      "resource": {
        "resourceType": "Procedure",
        "id": "4066d6c4-ab04-4e2c-84c6-d914a3063af9",
        "meta": {
          "profile": [
            "http://hl7.org/fhir/uv/ips/StructureDefinition/Procedure-uv-ips"
          ]
        },
        "code": {
          "coding": [
            {
              "code": "91251008",
              "system": "http://snomed.info/sct",
              "display": "Physical therapy procedure (regime/therapy)"
            }
          ],
          "text": "Physical therapy procedure"
        },
        "text": {
          "status": "generated",
          "div": "<div xmlns=\"http://www.w3.org/1999/xhtml\"><table class=\"hl7__ips\"><tr><td>Physical therapy procedure</td><td><span class=\"nb\">13-Aug-2021</span></td><td>-</td></tr></table></div>"
        },
        "status": "completed",
        "performedDateTime": "2021-08-13",
        "subject": {
          "reference": "urn:uuid:01469b58-e2ac-4252-ad24-90a408b24235",
          "display": "Noé Naranjo"
        }
      }
    },
    {
      "fullUrl": "urn:uuid:c0c58bce-45a0-4fde-a825-56419c57279a",
      "resource": {
        "resourceType": "Procedure",
        "id": "c0c58bce-45a0-4fde-a825-56419c57279a",
        "meta": {
          "profile": [
            "http://hl7.org/fhir/uv/ips/StructureDefinition/Procedure-uv-ips"
          ]
        },
        "code": {
          "coding": [
            {
              "code": "409023009",
              "system": "http://snomed.info/sct",
              "display": "Professional / ancillary services care (regime/therapy)"
            }
          ],
          "text": "Professional / ancillary services care"
        },
        "text": {
          "status": "generated",
          "div": "<div xmlns=\"http://www.w3.org/1999/xhtml\"><table class=\"hl7__ips\"><tr><td>Professional / ancillary services care</td><td><span class=\"nb\">12-Aug-2021</span></td><td>-</td></tr></table></div>"
        },
        "status": "completed",
        "performedDateTime": "2021-08-12",
        "subject": {
          "reference": "urn:uuid:01469b58-e2ac-4252-ad24-90a408b24235",
          "display": "Noé Naranjo"
        }
      }
    },
    {
      "fullUrl": "urn:uuid:2fdce0ba-5a06-466c-94ff-32ee579a524b",
      "resource": {
        "resourceType": "Procedure",
        "id": "2fdce0ba-5a06-466c-94ff-32ee579a524b",
        "meta": {
          "profile": [
            "http://hl7.org/fhir/uv/ips/StructureDefinition/Procedure-uv-ips"
          ]
        },
        "code": {
          "coding": [
            {
              "code": "392091000",
              "system": "http://snomed.info/sct",
              "display": "Care regimes assessment (procedure)"
            }
          ],
          "text": "Care regimes assessment"
        },
        "text": {
          "status": "generated",
          "div": "<div xmlns=\"http://www.w3.org/1999/xhtml\"><table class=\"hl7__ips\"><tr><td>Care regimes assessment</td><td><span class=\"nb\">26-Jul-2021</span></td><td>-</td></tr></table></div>"
        },
        "status": "completed",
        "performedDateTime": "2021-07-26",
        "subject": {
          "reference": "urn:uuid:01469b58-e2ac-4252-ad24-90a408b24235",
          "display": "Noé Naranjo"
        }
      }
    },
    {
      "fullUrl": "urn:uuid:ecad3574-d10e-4eba-b5bc-bd9b7252bb30",
      "resource": {
        "resourceType": "Procedure",
        "id": "ecad3574-d10e-4eba-b5bc-bd9b7252bb30",
        "meta": {
          "profile": [
            "http://hl7.org/fhir/uv/ips/StructureDefinition/Procedure-uv-ips"
          ]
        },
        "code": {
          "coding": [
            {
              "code": "1225002",
              "system": "http://snomed.info/sct",
              "display": "Upper arm X-ray"
            }
          ],
          "text": "Radiography of humerus"
        },
        "text": {
          "status": "generated",
          "div": "<div xmlns=\"http://www.w3.org/1999/xhtml\"><table class=\"hl7__ips\"><tr><td>Radiography of humerus</td><td><span class=\"nb\">24-Jul-2021</span></td><td>-</td></tr></table></div>"
        },
        "status": "completed",
        "performedDateTime": "2021-07-24",
        "subject": {
          "reference": "urn:uuid:01469b58-e2ac-4252-ad24-90a408b24235",
          "display": "Noé Naranjo"
        }
      }
    },
    {
      "fullUrl": "urn:uuid:1f14e1a8-3566-4a36-acc0-8820c749aa97",
      "resource": {
        "resourceType": "Procedure",
        "id": "1f14e1a8-3566-4a36-acc0-8820c749aa97",
        "meta": {
          "profile": [
            "http://hl7.org/fhir/uv/ips/StructureDefinition/Procedure-uv-ips"
          ]
        },
        "code": {
          "coding": [
            {
              "code": "63332003",
              "system": "http://snomed.info/sct",
              "display": "History AND physical examination (procedure)"
            }
          ],
          "text": "History AND physical examination"
        },
        "text": {
          "status": "generated",
          "div": "<div xmlns=\"http://www.w3.org/1999/xhtml\"><table class=\"hl7__ips\"><tr><td>History AND physical examination</td><td><span class=\"nb\">24-Jul-2021</span></td><td>-</td></tr></table></div>"
        },
        "status": "completed",
        "performedDateTime": "2021-07-24",
        "subject": {
          "reference": "urn:uuid:01469b58-e2ac-4252-ad24-90a408b24235",
          "display": "Noé Naranjo"
        }
      }
    },
    {
      "fullUrl": "urn:uuid:975f931b-dd57-47e9-b3c3-bb959e0e60f7",
      "resource": {
        "resourceType": "Procedure",
        "id": "975f931b-dd57-47e9-b3c3-bb959e0e60f7",
        "meta": {
          "profile": [
            "http://hl7.org/fhir/uv/ips/StructureDefinition/Procedure-uv-ips"
          ]
        },
        "code": {
          "coding": [
            {
              "code": "274474001",
              "system": "http://snomed.info/sct",
              "display": "Bone immobilization"
            }
          ],
          "text": "Bone immobilization"
        },
        "reasonCode": [
          {
            "coding": [
              {
                "code": "65966004",
                "system": "http://snomed.info/sct",
                "display": "Fracture of forearm"
              }
            ]
          }
        ],
        "text": {
          "status": "generated",
          "div": "<div xmlns=\"http://www.w3.org/1999/xhtml\"><table class=\"hl7__ips\"><tr><td>Bone immobilization</td><td><span class=\"nb\">24-Jul-2021</span></td><td>Fracture of forearm</td></tr></table></div>"
        },
        "status": "completed",
        "performedDateTime": "2021-07-24",
        "subject": {
          "reference": "urn:uuid:01469b58-e2ac-4252-ad24-90a408b24235",
          "display": "Noé Naranjo"
        }
      }
    },
    {
      "fullUrl": "urn:uuid:f2948590-a065-4504-bc49-8814183e9feb",
      "resource": {
        "resourceType": "Procedure",
        "id": "f2948590-a065-4504-bc49-8814183e9feb",
        "meta": {
          "profile": [
            "http://hl7.org/fhir/uv/ips/StructureDefinition/Procedure-uv-ips"
          ]
        },
        "code": {
          "coding": [
            {
              "code": "312681000",
              "system": "http://snomed.info/sct",
              "display": "Bone density scan (procedure)"
            }
          ],
          "text": "Bone density scan"
        },
        "reasonCode": [
          {
            "coding": [
              {
                "code": "65966004",
                "system": "http://snomed.info/sct",
                "display": "Fracture of forearm"
              }
            ]
          }
        ],
        "text": {
          "status": "generated",
          "div": "<div xmlns=\"http://www.w3.org/1999/xhtml\"><table class=\"hl7__ips\"><tr><td>Bone density scan</td><td><span class=\"nb\">31-Mar-2018</span></td><td>Fracture of forearm</td></tr></table></div>"
        },
        "status": "completed",
        "performedDateTime": "2018-03-31",
        "subject": {
          "reference": "urn:uuid:01469b58-e2ac-4252-ad24-90a408b24235",
          "display": "Noé Naranjo"
        }
      }
    },
    {
      "fullUrl": "urn:uuid:e861a62f-6da7-4d9d-b0a8-b7018cd7070b",
      "resource": {
        "resourceType": "AllergyIntolerance",
        "id": "e861a62f-6da7-4d9d-b0a8-b7018cd7070b",
        "meta": {
          "profile": [
            "http://hl7.eu/fhir/base/StructureDefinition/allergyIntolerance-eu-core"
          ]
        },
        "code": {
          "coding": [
            {
              "code": "1343356001",
              "system": "http://snomed.info/sct",
              "display": "Inadequate digital access affecting health care"
            }
          ],
          "text": "Inadequate digital access affecting health care"
        },
        "clinicalStatus": {
          "coding": [
            {
              "code": "active",
              "system": "http://terminology.hl7.org/CodeSystem/allergyintolerance-clinical"
            }
          ]
        },
        "category": [
          "environment"
        ],
        "text": {
          "status": "generated",
          "div": "<div xmlns=\"http://www.w3.org/1999/xhtml\"><table class=\"hl7__ips\"><tr><th>Allergy/Intolerance</th><th>Onset Date</th><th>Status</th><th>Type</th><th>Reaction</th></tr><tr><td>Inadequate digital access affecting health care</td><td><span class=\"nb\">2025-12-11</span></td><td>active</td><td>environment</td><td></td></tr></table></div>"
        },
        "onsetDateTime": "2025-12-11",
        "verificationStatus": {
          "coding": [
            {
              "code": "confirmed",
              "system": "http://terminology.hl7.org/CodeSystem/allergyintolerance-verification"
            }
          ]
        },
        "type": "intolerance",
        "patient": {
          "reference": "urn:uuid:01469b58-e2ac-4252-ad24-90a408b24235",
          "display": "Noé Naranjo"
        }
      }
    },
    {
      "fullUrl": "urn:uuid:b946b86f-272b-41ea-8e87-81355180049a",
      "resource": {
        "resourceType": "CarePlan",
        "id": "b946b86f-272b-41ea-8e87-81355180049a",
        "category": [
          {
            "coding": [
              {
                "code": "assess-plan",
                "system": "http://terminology.hl7.org/CodeSystem/care-plan-category",
                "display": "Assessment and Plan"
              }
            ]
          }
        ],
        "activity": [
          {
            "detail": {
              "code": {
                "coding": [
                  {
                    "code": "386257007",
                    "system": "http://snomed.info/sct",
                    "display": "Dementia management (regime/therapy)"
                  }
                ]
              },
              "reasonCode": [
                {
                  "coding": [
                    {
                      "code": "26929004",
                      "system": "http://snomed.info/sct",
                      "display": "Alzheimer&#039;s disease (disorder)"
                    }
                  ]
                }
              ],
              "status": "unknown",
              "description": "Dementia management",
              "kind": "Appointment"
            }
          }
        ],
        "period": {
          "start": "2014-10-17"
        },
        "goal": [
          {
            "reference": "urn:uuid:1c21b61b-afd3-4bfb-8229-80a29e6ad930"
          },
          {
            "reference": "urn:uuid:1a6a200a-e922-40e1-8665-65826b7ce0fa"
          },
          {
            "reference": "urn:uuid:4617c9d4-930f-445f-b080-829b5b554bce"
          },
          {
            "reference": "urn:uuid:16b1b192-f1b5-45f5-b128-4b6f3b449263"
          }
        ],
        "text": {
          "status": "generated",
          "div": "<div xmlns=\"http://www.w3.org/1999/xhtml\"><table class=\"hl7__ips first25\"><tr><th>Active Planned Care / Goals</th><th>Start Date</th><th>Reason</th></tr><tr><td>Dementia management</td><td><span class=\"nb\">17-Oct-2014</span></td><td>Alzheimer's disease (disorder)</td></tr><tr><td><ul><li>Maintain or slow decline in cognitive function as measured by MMSE.</li><li>Preserve ability to perform basic activities of daily living (ADLs) as measured by Barthel Index.</li><li>Reduce frequency and severity of behavioral and psychological symptoms as measured by NPI.</li><li>Achieve at least 80% adherence to prescribed dementia medication regimen.</li></ul></td><td></td><td></td></tr></table></div>"
        },
        "status": "active",
        "intent": "plan",
        "subject": {
          "reference": "urn:uuid:01469b58-e2ac-4252-ad24-90a408b24235",
          "display": "Noé Naranjo"
        }
      }
    },
    {
      "fullUrl": "urn:uuid:5597e586-1d1d-4628-a240-e76aab5dd04f",
      "resource": {
        "resourceType": "CarePlan",
        "id": "5597e586-1d1d-4628-a240-e76aab5dd04f",
        "category": [
          {
            "coding": [
              {
                "code": "assess-plan",
                "system": "http://terminology.hl7.org/CodeSystem/care-plan-category",
                "display": "Assessment and Plan"
              }
            ]
          }
        ],
        "activity": [
          {
            "detail": {
              "code": {
                "coding": [
                  {
                    "code": "734163000",
                    "system": "http://snomed.info/sct",
                    "display": "Care plan (record artifact)"
                  }
                ]
              },
              "status": "unknown",
              "description": "Care plan",
              "kind": "Appointment"
            }
          }
        ],
        "period": {
          "start": "2014-03-02"
        },
        "text": {
          "status": "generated",
          "div": "<div xmlns=\"http://www.w3.org/1999/xhtml\"><table class=\"hl7__ips first25\"><tr><th>Active Planned Care / Goals</th><th>Start Date</th><th>Reason</th></tr><tr><td>Care plan</td><td><span class=\"nb\">02-Mar-2014</span></td><td>-</td></tr></table></div>"
        },
        "status": "active",
        "intent": "plan",
        "subject": {
          "reference": "urn:uuid:01469b58-e2ac-4252-ad24-90a408b24235",
          "display": "Noé Naranjo"
        }
      }
    },
    {
      "fullUrl": "urn:uuid:23116cb7-b29f-40b2-b3b9-beee530031d4",
      "resource": {
        "resourceType": "CarePlan",
        "id": "23116cb7-b29f-40b2-b3b9-beee530031d4",
        "category": [
          {
            "coding": [
              {
                "code": "assess-plan",
                "system": "http://terminology.hl7.org/CodeSystem/care-plan-category",
                "display": "Assessment and Plan"
              }
            ]
          }
        ],
        "activity": [
          {
            "detail": {
              "code": {
                "coding": [
                  {
                    "code": "736372004",
                    "system": "http://snomed.info/sct",
                    "display": "Discharge care plan (record artifact)"
                  }
                ]
              },
              "status": "unknown",
              "description": "Discharge care plan",
              "kind": "Appointment"
            }
          }
        ],
        "period": {
          "start": "2011-05-17"
        },
        "text": {
          "status": "generated",
          "div": "<div xmlns=\"http://www.w3.org/1999/xhtml\"><table class=\"hl7__ips first25\"><tr><th>Active Planned Care / Goals</th><th>Start Date</th><th>Reason</th></tr><tr><td>Discharge care plan</td><td><span class=\"nb\">17-May-2011</span></td><td>-</td></tr></table></div>"
        },
        "status": "active",
        "intent": "plan",
        "subject": {
          "reference": "urn:uuid:01469b58-e2ac-4252-ad24-90a408b24235",
          "display": "Noé Naranjo"
        }
      }
    },
    {
      "fullUrl": "urn:uuid:76c43b2a-964c-45fd-abce-1297d33377b2",
      "resource": {
        "resourceType": "CarePlan",
        "id": "76c43b2a-964c-45fd-abce-1297d33377b2",
        "category": [
          {
            "coding": [
              {
                "code": "assess-plan",
                "system": "http://terminology.hl7.org/CodeSystem/care-plan-category",
                "display": "Assessment and Plan"
              }
            ]
          }
        ],
        "activity": [
          {
            "detail": {
              "code": {
                "coding": [
                  {
                    "code": "698360004",
                    "system": "http://snomed.info/sct",
                    "display": "Diabetes self management plan (qualifier value)"
                  }
                ]
              },
              "reasonCode": [
                {
                  "coding": [
                    {
                      "code": "15777000",
                      "system": "http://snomed.info/sct",
                      "display": "Prediabetes"
                    }
                  ]
                }
              ],
              "status": "unknown",
              "description": "Diabetes self management plan",
              "kind": "Appointment"
            }
          }
        ],
        "period": {
          "start": "1962-04-28"
        },
        "goal": [
          {
            "reference": "urn:uuid:62f2f3b0-b21b-4d9d-abdb-6b5e13531191"
          },
          {
            "reference": "urn:uuid:ecee7a40-fc22-414b-b7f5-60dd17cf38ac"
          },
          {
            "reference": "urn:uuid:e070c5f8-0e9d-44e1-baed-55118549a814"
          },
          {
            "reference": "urn:uuid:7383308f-076b-4e5d-8910-31fa55036c50"
          },
          {
            "reference": "urn:uuid:55e6c0de-12d6-4f28-9c23-59353d01ffcf"
          }
        ],
        "text": {
          "status": "generated",
          "div": "<div xmlns=\"http://www.w3.org/1999/xhtml\"><table class=\"hl7__ips first25\"><tr><th>Active Planned Care / Goals</th><th>Start Date</th><th>Reason</th></tr><tr><td>Diabetes self management plan</td><td><span class=\"nb\">28-Apr-1962</span></td><td>Prediabetes</td></tr><tr><td><ul><li>Patient will implement and maintain a diabetes self-management plan including diet, exercise, and medication adherence to optimize glycemic control.</li><li>Achieve and maintain HbA1c below 7.0% as part of diabetes self-management.</li><li>Maintain fasting blood glucose between 80 and 130 mg/dL.</li><li>Maintain blood pressure below 140/90 mmHg as part of diabetes self-management.</li><li>Maintain LDL cholesterol below 100 mg/dL as part of diabetes self-management.</li></ul></td><td></td><td></td></tr></table></div>"
        },
        "status": "active",
        "intent": "plan",
        "subject": {
          "reference": "urn:uuid:01469b58-e2ac-4252-ad24-90a408b24235",
          "display": "Noé Naranjo"
        }
      }
    },
    {
      "fullUrl": "urn:uuid:9f888a0d-75d7-4f91-a267-294d4cc88ce9",
      "resource": {
        "resourceType": "CarePlan",
        "id": "9f888a0d-75d7-4f91-a267-294d4cc88ce9",
        "category": [
          {
            "coding": [
              {
                "code": "assess-plan",
                "system": "http://terminology.hl7.org/CodeSystem/care-plan-category",
                "display": "Assessment and Plan"
              }
            ]
          }
        ],
        "activity": [
          {
            "detail": {
              "code": {
                "coding": [
                  {
                    "code": "443402002",
                    "system": "http://snomed.info/sct",
                    "display": "Lifestyle education regarding hypertension (procedure)"
                  }
                ]
              },
              "reasonCode": [
                {
                  "coding": [
                    {
                      "code": "59621000",
                      "system": "http://snomed.info/sct",
                      "display": "Essential hypertension (disorder)"
                    }
                  ]
                }
              ],
              "status": "unknown",
              "description": "Lifestyle education regarding hypertension",
              "kind": "Appointment"
            }
          }
        ],
        "period": {
          "start": "1958-04-05"
        },
        "goal": [
          {
            "reference": "urn:uuid:7acc5906-65fc-4ed8-bdc2-89c9550dbeae"
          },
          {
            "reference": "urn:uuid:a6756327-6b79-4a3e-8a32-b6f690f19c5e"
          },
          {
            "reference": "urn:uuid:2c891bdd-3d3b-47a2-841e-07257295a334"
          },
          {
            "reference": "urn:uuid:180cabd4-c1fb-4c71-8f0a-763d980b4bb8"
          }
        ],
        "text": {
          "status": "generated",
          "div": "<div xmlns=\"http://www.w3.org/1999/xhtml\"><table class=\"hl7__ips first25\"><tr><th>Active Planned Care / Goals</th><th>Start Date</th><th>Reason</th></tr><tr><td>Lifestyle education regarding hypertension</td><td><span class=\"nb\">05-Apr-1958</span></td><td>Essential hypertension (disorder)</td></tr><tr><td><ul><li>Achieve and maintain systolic blood pressure below 130 mm[Hg] through lifestyle modification.</li><li>Achieve and maintain diastolic blood pressure below 80 mm[Hg] through lifestyle modification.</li><li>Reduce dietary sodium intake to less than 2.3 grams per day as part of hypertension management.</li><li>Engage in at least 150 minutes of moderate-intensity aerobic physical activity per week to help control blood pressure.</li></ul></td><td></td><td></td></tr></table></div>"
        },
        "status": "active",
        "intent": "plan",
        "subject": {
          "reference": "urn:uuid:01469b58-e2ac-4252-ad24-90a408b24235",
          "display": "Noé Naranjo"
        }
      }
    },
    {
      "fullUrl": "urn:uuid:1fcf2ee3-2329-4b88-9e97-4e8d5071c2ef",
      "resource": {
        "resourceType": "ImmunizationRecommendation",
        "id": "1fcf2ee3-2329-4b88-9e97-4e8d5071c2ef",
        "recommendation": [
          {
            "vaccineCode": [
              {
                "coding": [
                  {
                    "code": "1181000221105",
                    "system": "http://snomed.info/sct",
                    "display": "Vaccine product containing only Influenza virus antigen (medicinal product)"
                  }
                ]
              }
            ],
            "dateCriterion": [
              {
                "code": {
                  "coding": [
                    {
                      "code": "30980-7",
                      "system": "http://loinc.org",
                      "display": "Date vaccine due"
                    }
                  ]
                },
                "value": "2025-10-01"
              }
            ],
            "targetDisease": {
              "coding": [
                {
                  "code": "6142004",
                  "system": "http://snomed.info/sct",
                  "display": "Influenza (disorder)"
                }
              ]
            },
            "series": "Annual seasonal influenza vaccination",
            "forecastStatus": {
              "coding": [
                {
                  "code": "due",
                  "system": "http://terminology.hl7.org/CodeSystem/immunization-recommendation-status",
                  "display": "Due"
                }
              ]
            }
          }
        ],
        "text": {
          "status": "generated",
          "div": "<div xmlns=\"http://www.w3.org/1999/xhtml\"><table class=\"hl7__ips\"><tr><td>Vaccine product containing only Influenza virus antigen (medicinal product)</td><td><span class=\"nb\">01-Oct-2025</span></td><td>Annual seasonal influenza vaccination</td></tr></table></div>"
        },
        "date": "2025-12-11",
        "patient": {
          "reference": "urn:uuid:01469b58-e2ac-4252-ad24-90a408b24235",
          "display": "Noé Naranjo"
        }
      }
    },
    {
      "fullUrl": "urn:uuid:9cda42c7-3f4c-42ab-9bdf-508b8292a230",
      "resource": {
        "resourceType": "Observation",
        "id": "9cda42c7-3f4c-42ab-9bdf-508b8292a230",
        "meta": {
          "profile": [
            "http://hl7.org/fhir/StructureDefinition/vitalsigns"
          ]
        },
        "category": [
          {
            "coding": [
              {
                "system": "http://terminology.hl7.org/CodeSystem/observation-category",
                "code": "vital-signs",
                "display": "Vital Signs"
              }
            ]
          }
        ],
        "valueQuantity": {
          "value": 179.8,
          "code": "cm",
          "unit": "cm"
        },
        "text": {
          "status": "generated",
          "div": "<div xmlns=\"http://www.w3.org/1999/xhtml\"><table class=\"hl7__ips\"><tr><th>Vital Sign</th><th>Date</th><th>Measurement</th></tr><tr><td>Body Height</td><td>19-Jul-2025</td><td>179.8 cm</td></tr></table></div>"
        },
        "status": "final",
        "code": {
          "coding": [
            {
              "code": "8302-2",
              "system": "http://loinc.org",
              "display": "Body Height"
            }
          ]
        },
        "subject": {
          "reference": "urn:uuid:01469b58-e2ac-4252-ad24-90a408b24235",
          "display": "Noé Naranjo"
        },
        "effectiveDateTime": "2025-07-19"
      }
    },
    {
      "fullUrl": "urn:uuid:319aadee-c2fd-4c3c-8544-94d112dbae5c",
      "resource": {
        "resourceType": "Observation",
        "id": "319aadee-c2fd-4c3c-8544-94d112dbae5c",
        "meta": {
          "profile": [
            "http://hl7.org/fhir/StructureDefinition/vitalsigns"
          ]
        },
        "category": [
          {
            "coding": [
              {
                "system": "http://terminology.hl7.org/CodeSystem/observation-category",
                "code": "vital-signs",
                "display": "Vital Signs"
              }
            ]
          }
        ],
        "valueQuantity": {
          "value": 4,
          "code": "{score}",
          "unit": "{score}"
        },
        "text": {
          "status": "generated",
          "div": "<div xmlns=\"http://www.w3.org/1999/xhtml\"><table class=\"hl7__ips\"><tr><th>Vital Sign</th><th>Date</th><th>Measurement</th></tr><tr><td>Pain severity - 0-10 verbal numeric rating [Score] - Reported</td><td>19-Jul-2025</td><td>4 {score}</td></tr></table></div>"
        },
        "status": "final",
        "code": {
          "coding": [
            {
              "code": "72514-3",
              "system": "http://loinc.org",
              "display": "Pain severity - 0-10 verbal numeric rating [Score] - Reported"
            }
          ]
        },
        "subject": {
          "reference": "urn:uuid:01469b58-e2ac-4252-ad24-90a408b24235",
          "display": "Noé Naranjo"
        },
        "effectiveDateTime": "2025-07-19"
      }
    },
    {
      "fullUrl": "urn:uuid:a3307efc-2901-4bc9-81f7-90198f2c6901",
      "resource": {
        "resourceType": "Observation",
        "id": "a3307efc-2901-4bc9-81f7-90198f2c6901",
        "meta": {
          "profile": [
            "http://hl7.org/fhir/StructureDefinition/vitalsigns"
          ]
        },
        "category": [
          {
            "coding": [
              {
                "system": "http://terminology.hl7.org/CodeSystem/observation-category",
                "code": "vital-signs",
                "display": "Vital Signs"
              }
            ]
          }
        ],
        "valueQuantity": {
          "value": 90.1,
          "code": "kg",
          "unit": "kg"
        },
        "text": {
          "status": "generated",
          "div": "<div xmlns=\"http://www.w3.org/1999/xhtml\"><table class=\"hl7__ips\"><tr><th>Vital Sign</th><th>Date</th><th>Measurement</th></tr><tr><td>Body Weight</td><td>19-Jul-2025</td><td>90.1 kg</td></tr></table></div>"
        },
        "status": "final",
        "code": {
          "coding": [
            {
              "code": "29463-7",
              "system": "http://loinc.org",
              "display": "Body Weight"
            }
          ]
        },
        "subject": {
          "reference": "urn:uuid:01469b58-e2ac-4252-ad24-90a408b24235",
          "display": "Noé Naranjo"
        },
        "effectiveDateTime": "2025-07-19"
      }
    },
    {
      "fullUrl": "urn:uuid:c83d219a-f043-4d18-8c39-1ab98dc90753",
      "resource": {
        "resourceType": "Observation",
        "id": "c83d219a-f043-4d18-8c39-1ab98dc90753",
        "meta": {
          "profile": [
            "http://hl7.org/fhir/StructureDefinition/vitalsigns"
          ]
        },
        "category": [
          {
            "coding": [
              {
                "system": "http://terminology.hl7.org/CodeSystem/observation-category",
                "code": "vital-signs",
                "display": "Vital Signs"
              }
            ]
          }
        ],
        "valueQuantity": {
          "value": 27.9,
          "code": "kg/m2",
          "unit": "kg/m2"
        },
        "text": {
          "status": "generated",
          "div": "<div xmlns=\"http://www.w3.org/1999/xhtml\"><table class=\"hl7__ips\"><tr><th>Vital Sign</th><th>Date</th><th>Measurement</th></tr><tr><td>Body mass index (BMI) [Ratio]</td><td>19-Jul-2025</td><td>27.9 kg/m2</td></tr></table></div>"
        },
        "status": "final",
        "code": {
          "coding": [
            {
              "code": "39156-5",
              "system": "http://loinc.org",
              "display": "Body mass index (BMI) [Ratio]"
            }
          ]
        },
        "subject": {
          "reference": "urn:uuid:01469b58-e2ac-4252-ad24-90a408b24235",
          "display": "Noé Naranjo"
        },
        "effectiveDateTime": "2025-07-19"
      }
    },
    {
      "fullUrl": "urn:uuid:f2e5029e-bfe5-4c85-b390-59ca817dafd6",
      "resource": {
        "resourceType": "Observation",
        "id": "f2e5029e-bfe5-4c85-b390-59ca817dafd6",
        "meta": {
          "profile": [
            "http://hl7.org/fhir/StructureDefinition/vitalsigns"
          ]
        },
        "category": [
          {
            "coding": [
              {
                "system": "http://terminology.hl7.org/CodeSystem/observation-category",
                "code": "vital-signs",
                "display": "Vital Signs"
              }
            ]
          }
        ],
        "valueQuantity": {
          "value": 85,
          "code": "mm[Hg]",
          "unit": "mm[Hg]"
        },
        "text": {
          "status": "generated",
          "div": "<div xmlns=\"http://www.w3.org/1999/xhtml\"><table class=\"hl7__ips\"><tr><th>Vital Sign</th><th>Date</th><th>Measurement</th></tr><tr><td>Diastolic Blood Pressure</td><td>19-Jul-2025</td><td>85 mm[Hg]</td></tr></table></div>"
        },
        "status": "final",
        "code": {
          "coding": [
            {
              "code": "8462-4",
              "system": "http://loinc.org",
              "display": "Diastolic Blood Pressure"
            }
          ]
        },
        "subject": {
          "reference": "urn:uuid:01469b58-e2ac-4252-ad24-90a408b24235",
          "display": "Noé Naranjo"
        },
        "effectiveDateTime": "2025-07-19"
      }
    },
    {
      "fullUrl": "urn:uuid:245bb7a1-88f5-449d-985f-dc6795e6fbe2",
      "resource": {
        "resourceType": "Observation",
        "id": "245bb7a1-88f5-449d-985f-dc6795e6fbe2",
        "meta": {
          "profile": [
            "http://hl7.org/fhir/StructureDefinition/vitalsigns"
          ]
        },
        "category": [
          {
            "coding": [
              {
                "system": "http://terminology.hl7.org/CodeSystem/observation-category",
                "code": "vital-signs",
                "display": "Vital Signs"
              }
            ]
          }
        ],
        "valueQuantity": {
          "value": 141,
          "code": "mm[Hg]",
          "unit": "mm[Hg]"
        },
        "text": {
          "status": "generated",
          "div": "<div xmlns=\"http://www.w3.org/1999/xhtml\"><table class=\"hl7__ips\"><tr><th>Vital Sign</th><th>Date</th><th>Measurement</th></tr><tr><td>Systolic Blood Pressure</td><td>19-Jul-2025</td><td>141 mm[Hg]</td></tr></table></div>"
        },
        "status": "final",
        "code": {
          "coding": [
            {
              "code": "8480-6",
              "system": "http://loinc.org",
              "display": "Systolic Blood Pressure"
            }
          ]
        },
        "subject": {
          "reference": "urn:uuid:01469b58-e2ac-4252-ad24-90a408b24235",
          "display": "Noé Naranjo"
        },
        "effectiveDateTime": "2025-07-19"
      }
    },
    {
      "fullUrl": "urn:uuid:5dad0456-61c5-4d6e-97c1-97c5db7d9d2b",
      "resource": {
        "resourceType": "Observation",
        "id": "5dad0456-61c5-4d6e-97c1-97c5db7d9d2b",
        "meta": {
          "profile": [
            "http://hl7.org/fhir/StructureDefinition/vitalsigns"
          ]
        },
        "category": [
          {
            "coding": [
              {
                "system": "http://terminology.hl7.org/CodeSystem/observation-category",
                "code": "vital-signs",
                "display": "Vital Signs"
              }
            ]
          }
        ],
        "valueQuantity": {
          "value": 81,
          "code": "/min",
          "unit": "/min"
        },
        "text": {
          "status": "generated",
          "div": "<div xmlns=\"http://www.w3.org/1999/xhtml\"><table class=\"hl7__ips\"><tr><th>Vital Sign</th><th>Date</th><th>Measurement</th></tr><tr><td>Heart rate</td><td>19-Jul-2025</td><td>81 /min</td></tr></table></div>"
        },
        "status": "final",
        "code": {
          "coding": [
            {
              "code": "8867-4",
              "system": "http://loinc.org",
              "display": "Heart rate"
            }
          ]
        },
        "subject": {
          "reference": "urn:uuid:01469b58-e2ac-4252-ad24-90a408b24235",
          "display": "Noé Naranjo"
        },
        "effectiveDateTime": "2025-07-19"
      }
    },
    {
      "fullUrl": "urn:uuid:e1858169-6b91-4a23-9f21-9e8b880ea737",
      "resource": {
        "resourceType": "Observation",
        "id": "e1858169-6b91-4a23-9f21-9e8b880ea737",
        "meta": {
          "profile": [
            "http://hl7.org/fhir/StructureDefinition/vitalsigns"
          ]
        },
        "category": [
          {
            "coding": [
              {
                "system": "http://terminology.hl7.org/CodeSystem/observation-category",
                "code": "vital-signs",
                "display": "Vital Signs"
              }
            ]
          }
        ],
        "valueQuantity": {
          "value": 14,
          "code": "/min",
          "unit": "/min"
        },
        "text": {
          "status": "generated",
          "div": "<div xmlns=\"http://www.w3.org/1999/xhtml\"><table class=\"hl7__ips\"><tr><th>Vital Sign</th><th>Date</th><th>Measurement</th></tr><tr><td>Respiratory rate</td><td>19-Jul-2025</td><td>14 /min</td></tr></table></div>"
        },
        "status": "final",
        "code": {
          "coding": [
            {
              "code": "9279-1",
              "system": "http://loinc.org",
              "display": "Respiratory rate"
            }
          ]
        },
        "subject": {
          "reference": "urn:uuid:01469b58-e2ac-4252-ad24-90a408b24235",
          "display": "Noé Naranjo"
        },
        "effectiveDateTime": "2025-07-19"
      }
    },
    {
      "fullUrl": "urn:uuid:23ca7f9b-d1f0-41a9-8610-ed1c96c4847e",
      "resource": {
        "resourceType": "Observation",
        "id": "23ca7f9b-d1f0-41a9-8610-ed1c96c4847e",
        "meta": {
          "profile": [
            "http://hl7.org/fhir/StructureDefinition/vitalsigns"
          ]
        },
        "category": [
          {
            "coding": [
              {
                "system": "http://terminology.hl7.org/CodeSystem/observation-category",
                "code": "vital-signs",
                "display": "Vital Signs"
              }
            ]
          }
        ],
        "valueQuantity": {
          "value": 179.8,
          "code": "cm",
          "unit": "cm"
        },
        "text": {
          "status": "generated",
          "div": "<div xmlns=\"http://www.w3.org/1999/xhtml\"><table class=\"hl7__ips\"><tr><th>Vital Sign</th><th>Date</th><th>Measurement</th></tr><tr><td>Body Height</td><td>05-Jul-2025</td><td>179.8 cm</td></tr></table></div>"
        },
        "status": "final",
        "code": {
          "coding": [
            {
              "code": "8302-2",
              "system": "http://loinc.org",
              "display": "Body Height"
            }
          ]
        },
        "subject": {
          "reference": "urn:uuid:01469b58-e2ac-4252-ad24-90a408b24235",
          "display": "Noé Naranjo"
        },
        "effectiveDateTime": "2025-07-05"
      }
    },
    {
      "fullUrl": "urn:uuid:18927f88-d5a1-406c-813d-decf1d384ff1",
      "resource": {
        "resourceType": "Observation",
        "id": "18927f88-d5a1-406c-813d-decf1d384ff1",
        "meta": {
          "profile": [
            "http://hl7.org/fhir/StructureDefinition/vitalsigns"
          ]
        },
        "category": [
          {
            "coding": [
              {
                "system": "http://terminology.hl7.org/CodeSystem/observation-category",
                "code": "vital-signs",
                "display": "Vital Signs"
              }
            ]
          }
        ],
        "valueQuantity": {
          "value": 4,
          "code": "{score}",
          "unit": "{score}"
        },
        "text": {
          "status": "generated",
          "div": "<div xmlns=\"http://www.w3.org/1999/xhtml\"><table class=\"hl7__ips\"><tr><th>Vital Sign</th><th>Date</th><th>Measurement</th></tr><tr><td>Pain severity - 0-10 verbal numeric rating [Score] - Reported</td><td>05-Jul-2025</td><td>4 {score}</td></tr></table></div>"
        },
        "status": "final",
        "code": {
          "coding": [
            {
              "code": "72514-3",
              "system": "http://loinc.org",
              "display": "Pain severity - 0-10 verbal numeric rating [Score] - Reported"
            }
          ]
        },
        "subject": {
          "reference": "urn:uuid:01469b58-e2ac-4252-ad24-90a408b24235",
          "display": "Noé Naranjo"
        },
        "effectiveDateTime": "2025-07-05"
      }
    },
    {
      "fullUrl": "urn:uuid:8506aebf-bf43-466a-b564-a4bf91faa270",
      "resource": {
        "resourceType": "Observation",
        "id": "8506aebf-bf43-466a-b564-a4bf91faa270",
        "meta": {
          "profile": [
            "http://hl7.org/fhir/StructureDefinition/vitalsigns"
          ]
        },
        "category": [
          {
            "coding": [
              {
                "system": "http://terminology.hl7.org/CodeSystem/observation-category",
                "code": "vital-signs",
                "display": "Vital Signs"
              }
            ]
          }
        ],
        "valueQuantity": {
          "value": 90.1,
          "code": "kg",
          "unit": "kg"
        },
        "text": {
          "status": "generated",
          "div": "<div xmlns=\"http://www.w3.org/1999/xhtml\"><table class=\"hl7__ips\"><tr><th>Vital Sign</th><th>Date</th><th>Measurement</th></tr><tr><td>Body Weight</td><td>05-Jul-2025</td><td>90.1 kg</td></tr></table></div>"
        },
        "status": "final",
        "code": {
          "coding": [
            {
              "code": "29463-7",
              "system": "http://loinc.org",
              "display": "Body Weight"
            }
          ]
        },
        "subject": {
          "reference": "urn:uuid:01469b58-e2ac-4252-ad24-90a408b24235",
          "display": "Noé Naranjo"
        },
        "effectiveDateTime": "2025-07-05"
      }
    },
    {
      "fullUrl": "urn:uuid:a9c23424-c60b-4788-ae61-f7eeb96497c4",
      "resource": {
        "resourceType": "Observation",
        "id": "a9c23424-c60b-4788-ae61-f7eeb96497c4",
        "meta": {
          "profile": [
            "http://hl7.org/fhir/StructureDefinition/vitalsigns"
          ]
        },
        "category": [
          {
            "coding": [
              {
                "system": "http://terminology.hl7.org/CodeSystem/observation-category",
                "code": "vital-signs",
                "display": "Vital Signs"
              }
            ]
          }
        ],
        "valueQuantity": {
          "value": 27.9,
          "code": "kg/m2",
          "unit": "kg/m2"
        },
        "text": {
          "status": "generated",
          "div": "<div xmlns=\"http://www.w3.org/1999/xhtml\"><table class=\"hl7__ips\"><tr><th>Vital Sign</th><th>Date</th><th>Measurement</th></tr><tr><td>Body mass index (BMI) [Ratio]</td><td>05-Jul-2025</td><td>27.9 kg/m2</td></tr></table></div>"
        },
        "status": "final",
        "code": {
          "coding": [
            {
              "code": "39156-5",
              "system": "http://loinc.org",
              "display": "Body mass index (BMI) [Ratio]"
            }
          ]
        },
        "subject": {
          "reference": "urn:uuid:01469b58-e2ac-4252-ad24-90a408b24235",
          "display": "Noé Naranjo"
        },
        "effectiveDateTime": "2025-07-05"
      }
    },
    {
      "fullUrl": "urn:uuid:3a59a3f4-8594-46b9-b970-628b86d5e5a5",
      "resource": {
        "resourceType": "Observation",
        "id": "3a59a3f4-8594-46b9-b970-628b86d5e5a5",
        "meta": {
          "profile": [
            "http://hl7.org/fhir/StructureDefinition/vitalsigns"
          ]
        },
        "category": [
          {
            "coding": [
              {
                "system": "http://terminology.hl7.org/CodeSystem/observation-category",
                "code": "vital-signs",
                "display": "Vital Signs"
              }
            ]
          }
        ],
        "valueQuantity": {
          "value": 87,
          "code": "mm[Hg]",
          "unit": "mm[Hg]"
        },
        "text": {
          "status": "generated",
          "div": "<div xmlns=\"http://www.w3.org/1999/xhtml\"><table class=\"hl7__ips\"><tr><th>Vital Sign</th><th>Date</th><th>Measurement</th></tr><tr><td>Diastolic Blood Pressure</td><td>05-Jul-2025</td><td>87 mm[Hg]</td></tr></table></div>"
        },
        "status": "final",
        "code": {
          "coding": [
            {
              "code": "8462-4",
              "system": "http://loinc.org",
              "display": "Diastolic Blood Pressure"
            }
          ]
        },
        "subject": {
          "reference": "urn:uuid:01469b58-e2ac-4252-ad24-90a408b24235",
          "display": "Noé Naranjo"
        },
        "effectiveDateTime": "2025-07-05"
      }
    },
    {
      "fullUrl": "urn:uuid:aa1b9193-7a4c-4c03-8e8f-b220c6661303",
      "resource": {
        "resourceType": "Observation",
        "id": "aa1b9193-7a4c-4c03-8e8f-b220c6661303",
        "meta": {
          "profile": [
            "http://hl7.org/fhir/StructureDefinition/vitalsigns"
          ]
        },
        "category": [
          {
            "coding": [
              {
                "system": "http://terminology.hl7.org/CodeSystem/observation-category",
                "code": "vital-signs",
                "display": "Vital Signs"
              }
            ]
          }
        ],
        "valueQuantity": {
          "value": 129,
          "code": "mm[Hg]",
          "unit": "mm[Hg]"
        },
        "text": {
          "status": "generated",
          "div": "<div xmlns=\"http://www.w3.org/1999/xhtml\"><table class=\"hl7__ips\"><tr><th>Vital Sign</th><th>Date</th><th>Measurement</th></tr><tr><td>Systolic Blood Pressure</td><td>05-Jul-2025</td><td>129 mm[Hg]</td></tr></table></div>"
        },
        "status": "final",
        "code": {
          "coding": [
            {
              "code": "8480-6",
              "system": "http://loinc.org",
              "display": "Systolic Blood Pressure"
            }
          ]
        },
        "subject": {
          "reference": "urn:uuid:01469b58-e2ac-4252-ad24-90a408b24235",
          "display": "Noé Naranjo"
        },
        "effectiveDateTime": "2025-07-05"
      }
    },
    {
      "fullUrl": "urn:uuid:a53ab855-c57a-45d5-8bde-64fc7630131f",
      "resource": {
        "resourceType": "Observation",
        "id": "a53ab855-c57a-45d5-8bde-64fc7630131f",
        "meta": {
          "profile": [
            "http://hl7.org/fhir/StructureDefinition/vitalsigns"
          ]
        },
        "category": [
          {
            "coding": [
              {
                "system": "http://terminology.hl7.org/CodeSystem/observation-category",
                "code": "vital-signs",
                "display": "Vital Signs"
              }
            ]
          }
        ],
        "valueQuantity": {
          "value": 79,
          "code": "/min",
          "unit": "/min"
        },
        "text": {
          "status": "generated",
          "div": "<div xmlns=\"http://www.w3.org/1999/xhtml\"><table class=\"hl7__ips\"><tr><th>Vital Sign</th><th>Date</th><th>Measurement</th></tr><tr><td>Heart rate</td><td>05-Jul-2025</td><td>79 /min</td></tr></table></div>"
        },
        "status": "final",
        "code": {
          "coding": [
            {
              "code": "8867-4",
              "system": "http://loinc.org",
              "display": "Heart rate"
            }
          ]
        },
        "subject": {
          "reference": "urn:uuid:01469b58-e2ac-4252-ad24-90a408b24235",
          "display": "Noé Naranjo"
        },
        "effectiveDateTime": "2025-07-05"
      }
    },
    {
      "fullUrl": "urn:uuid:07b70191-cdf9-4f9d-8c29-25fdbcef0039",
      "resource": {
        "resourceType": "Observation",
        "id": "07b70191-cdf9-4f9d-8c29-25fdbcef0039",
        "meta": {
          "profile": [
            "http://hl7.org/fhir/StructureDefinition/vitalsigns"
          ]
        },
        "category": [
          {
            "coding": [
              {
                "system": "http://terminology.hl7.org/CodeSystem/observation-category",
                "code": "vital-signs",
                "display": "Vital Signs"
              }
            ]
          }
        ],
        "valueQuantity": {
          "value": 13,
          "code": "/min",
          "unit": "/min"
        },
        "text": {
          "status": "generated",
          "div": "<div xmlns=\"http://www.w3.org/1999/xhtml\"><table class=\"hl7__ips\"><tr><th>Vital Sign</th><th>Date</th><th>Measurement</th></tr><tr><td>Respiratory rate</td><td>05-Jul-2025</td><td>13 /min</td></tr></table></div>"
        },
        "status": "final",
        "code": {
          "coding": [
            {
              "code": "9279-1",
              "system": "http://loinc.org",
              "display": "Respiratory rate"
            }
          ]
        },
        "subject": {
          "reference": "urn:uuid:01469b58-e2ac-4252-ad24-90a408b24235",
          "display": "Noé Naranjo"
        },
        "effectiveDateTime": "2025-07-05"
      }
    },
    {
      "fullUrl": "urn:uuid:5c7bbca2-1ef7-4d25-8ba6-41f31d2b8af3",
      "resource": {
        "resourceType": "Observation",
        "id": "5c7bbca2-1ef7-4d25-8ba6-41f31d2b8af3",
        "meta": {
          "profile": [
            "http://hl7.eu/fhir/laboratory/StructureDefinition/Observation-resultslab-eu-lab"
          ]
        },
        "performer": [
          {
            "display": "The Central European Lab"
          }
        ],
        "category": [
          {
            "coding": [
              {
                "system": "http://terminology.hl7.org/CodeSystem/observation-category",
                "code": "laboratory"
              }
            ]
          }
        ],
        "code": {
          "coding": [
            {
              "code": "2345-7",
              "system": "http://loinc.org",
              "display": "Glucose [Mass/volume] in Serum or Plasma"
            }
          ],
          "text": "Glucose [Mass/volume] in Serum or Plasma"
        },
        "valueQuantity": {
          "system": "http://unitsofmeasure.org",
          "value": 66.4,
          "unit": "mg/dL",
          "code": "mg/dL"
        },
        "referenceRange": [
          {
            "low": {
              "value": 70,
              "code": "mg/dL",
              "system": "http://unitsofmeasure.org"
            }
          },
          {
            "high": {
              "value": 140,
              "code": "mg/dL",
              "system": "http://unitsofmeasure.org"
            }
          }
        ],
        "interpretation": [
          {
            "coding": [
              {
                "code": "L",
                "system": "http://terminology.hl7.org/CodeSystem/v3-ObservationInterpretation",
                "display": "Low"
              }
            ]
          }
        ],
        "text": {
          "status": "generated",
          "div": "<div xmlns=\"http://www.w3.org/1999/xhtml\"><table class=\"hl7__eu__lab__report\"><tr><th>Test</th><th>19-Jul-2025</th><th>Reference&#xA0;Range</th><th>Unit</th></tr><tr><td>Glucose [Mass/volume] in Serum or Plasma</td><td>66.4</td><td>70 - 140</td><td>L</td><td>mg/dL</td></tr></table></div>"
        },
        "status": "final",
        "subject": {
          "reference": "urn:uuid:01469b58-e2ac-4252-ad24-90a408b24235",
          "display": "Noé Naranjo"
        },
        "effectiveDateTime": "2025-07-19T08:56:28Z"
      }
    },
    {
      "fullUrl": "urn:uuid:ef54b2b9-ce46-4c47-bd21-347770784bcf",
      "resource": {
        "resourceType": "Observation",
        "id": "ef54b2b9-ce46-4c47-bd21-347770784bcf",
        "meta": {
          "profile": [
            "http://hl7.eu/fhir/laboratory/StructureDefinition/Observation-resultslab-eu-lab"
          ]
        },
        "performer": [
          {
            "display": "The Central European Lab"
          }
        ],
        "category": [
          {
            "coding": [
              {
                "system": "http://terminology.hl7.org/CodeSystem/observation-category",
                "code": "laboratory"
              }
            ]
          }
        ],
        "code": {
          "coding": [
            {
              "code": "3094-0",
              "system": "http://loinc.org",
              "display": "Urea nitrogen [Mass/volume] in Serum or Plasma"
            }
          ],
          "text": "Urea nitrogen [Mass/volume] in Serum or Plasma"
        },
        "valueQuantity": {
          "system": "http://unitsofmeasure.org",
          "value": 16.6,
          "unit": "mg/dL",
          "code": "mg/dL"
        },
        "referenceRange": [
          {
            "low": {
              "value": 7,
              "code": "mg/dL",
              "system": "http://unitsofmeasure.org"
            }
          },
          {
            "high": {
              "value": 20,
              "code": "mg/dL",
              "system": "http://unitsofmeasure.org"
            }
          }
        ],
        "text": {
          "status": "generated",
          "div": "<div xmlns=\"http://www.w3.org/1999/xhtml\"><table class=\"hl7__eu__lab__report\"><tr><th>Test</th><th>19-Jul-2025</th><th>Reference&#xA0;Range</th><th>Unit</th></tr><tr><td>Urea nitrogen [Mass/volume] in Serum or Plasma</td><td>16.6</td><td>7 - 20</td><td></td><td>mg/dL</td></tr></table></div>"
        },
        "status": "final",
        "subject": {
          "reference": "urn:uuid:01469b58-e2ac-4252-ad24-90a408b24235",
          "display": "Noé Naranjo"
        },
        "effectiveDateTime": "2025-07-19T08:56:28Z"
      }
    },
    {
      "fullUrl": "urn:uuid:15011848-6d1b-457b-83a4-a7d14404d208",
      "resource": {
        "resourceType": "Observation",
        "id": "15011848-6d1b-457b-83a4-a7d14404d208",
        "meta": {
          "profile": [
            "http://hl7.eu/fhir/laboratory/StructureDefinition/Observation-resultslab-eu-lab"
          ]
        },
        "performer": [
          {
            "display": "The Central European Lab"
          }
        ],
        "category": [
          {
            "coding": [
              {
                "system": "http://terminology.hl7.org/CodeSystem/observation-category",
                "code": "laboratory"
              }
            ]
          }
        ],
        "code": {
          "coding": [
            {
              "code": "2160-0",
              "system": "http://loinc.org",
              "display": "Creatinine [Mass/volume] in Serum or Plasma"
            }
          ],
          "text": "Creatinine [Mass/volume] in Serum or Plasma"
        },
        "valueQuantity": {
          "system": "http://unitsofmeasure.org",
          "value": 1.8,
          "unit": "mg/dL",
          "code": "mg/dL"
        },
        "referenceRange": [
          {
            "low": {
              "value": 0.9,
              "code": "mg/dL",
              "system": "http://unitsofmeasure.org"
            }
          },
          {
            "high": {
              "value": 1.3,
              "code": "mg/dL",
              "system": "http://unitsofmeasure.org"
            }
          }
        ],
        "interpretation": [
          {
            "coding": [
              {
                "code": "H",
                "system": "http://terminology.hl7.org/CodeSystem/v3-ObservationInterpretation",
                "display": "High"
              }
            ]
          }
        ],
        "text": {
          "status": "generated",
          "div": "<div xmlns=\"http://www.w3.org/1999/xhtml\"><table class=\"hl7__eu__lab__report\"><tr><th>Test</th><th>19-Jul-2025</th><th>Reference&#xA0;Range</th><th>Unit</th></tr><tr><td>Creatinine [Mass/volume] in Serum or Plasma</td><td>1.8</td><td>0.9 - 1.3</td><td>H</td><td>mg/dL</td></tr></table></div>"
        },
        "status": "final",
        "subject": {
          "reference": "urn:uuid:01469b58-e2ac-4252-ad24-90a408b24235",
          "display": "Noé Naranjo"
        },
        "effectiveDateTime": "2025-07-19T08:56:28Z"
      }
    },
    {
      "fullUrl": "urn:uuid:a7ecea08-fbcd-4862-928d-e2978f1b7036",
      "resource": {
        "resourceType": "Observation",
        "id": "a7ecea08-fbcd-4862-928d-e2978f1b7036",
        "meta": {
          "profile": [
            "http://hl7.eu/fhir/laboratory/StructureDefinition/Observation-resultslab-eu-lab"
          ]
        },
        "performer": [
          {
            "display": "The Central European Lab"
          }
        ],
        "category": [
          {
            "coding": [
              {
                "system": "http://terminology.hl7.org/CodeSystem/observation-category",
                "code": "laboratory"
              }
            ]
          }
        ],
        "code": {
          "coding": [
            {
              "code": "17861-6",
              "system": "http://loinc.org",
              "display": "Calcium [Mass/volume] in Serum or Plasma"
            }
          ],
          "text": "Calcium [Mass/volume] in Serum or Plasma"
        },
        "valueQuantity": {
          "system": "http://unitsofmeasure.org",
          "value": 9.5,
          "unit": "mg/dL",
          "code": "mg/dL"
        },
        "referenceRange": [
          {
            "low": {
              "value": 8.5,
              "code": "mg/dL",
              "system": "http://unitsofmeasure.org"
            }
          },
          {
            "high": {
              "value": 10.5,
              "code": "mg/dL",
              "system": "http://unitsofmeasure.org"
            }
          }
        ],
        "text": {
          "status": "generated",
          "div": "<div xmlns=\"http://www.w3.org/1999/xhtml\"><table class=\"hl7__eu__lab__report\"><tr><th>Test</th><th>19-Jul-2025</th><th>Reference&#xA0;Range</th><th>Unit</th></tr><tr><td>Calcium [Mass/volume] in Serum or Plasma</td><td>9.5</td><td>8.5 - 10.5</td><td></td><td>mg/dL</td></tr></table></div>"
        },
        "status": "final",
        "subject": {
          "reference": "urn:uuid:01469b58-e2ac-4252-ad24-90a408b24235",
          "display": "Noé Naranjo"
        },
        "effectiveDateTime": "2025-07-19T08:56:28Z"
      }
    },
    {
      "fullUrl": "urn:uuid:d15041c8-e7e3-4ad4-8679-25fa0e7de19e",
      "resource": {
        "resourceType": "Observation",
        "id": "d15041c8-e7e3-4ad4-8679-25fa0e7de19e",
        "meta": {
          "profile": [
            "http://hl7.eu/fhir/laboratory/StructureDefinition/Observation-resultslab-eu-lab"
          ]
        },
        "performer": [
          {
            "display": "The Central European Lab"
          }
        ],
        "category": [
          {
            "coding": [
              {
                "system": "http://terminology.hl7.org/CodeSystem/observation-category",
                "code": "laboratory"
              }
            ]
          }
        ],
        "code": {
          "coding": [
            {
              "code": "2951-2",
              "system": "http://loinc.org",
              "display": "Sodium [Moles/volume] in Serum or Plasma"
            }
          ],
          "text": "Sodium [Moles/volume] in Serum or Plasma"
        },
        "valueQuantity": {
          "system": "http://unitsofmeasure.org",
          "value": 141.8,
          "unit": "mmol/L",
          "code": "mmol/L"
        },
        "referenceRange": [
          {
            "low": {
              "value": 135,
              "code": "mmol/L",
              "system": "http://unitsofmeasure.org"
            }
          },
          {
            "high": {
              "value": 145,
              "code": "mmol/L",
              "system": "http://unitsofmeasure.org"
            }
          }
        ],
        "text": {
          "status": "generated",
          "div": "<div xmlns=\"http://www.w3.org/1999/xhtml\"><table class=\"hl7__eu__lab__report\"><tr><th>Test</th><th>19-Jul-2025</th><th>Reference&#xA0;Range</th><th>Unit</th></tr><tr><td>Sodium [Moles/volume] in Serum or Plasma</td><td>141.8</td><td>135 - 145</td><td></td><td>mmol/L</td></tr></table></div>"
        },
        "status": "final",
        "subject": {
          "reference": "urn:uuid:01469b58-e2ac-4252-ad24-90a408b24235",
          "display": "Noé Naranjo"
        },
        "effectiveDateTime": "2025-07-19T08:56:28Z"
      }
    },
    {
      "fullUrl": "urn:uuid:3711a61f-e5c5-4bba-8460-54d33fe7c2b8",
      "resource": {
        "resourceType": "Observation",
        "id": "3711a61f-e5c5-4bba-8460-54d33fe7c2b8",
        "meta": {
          "profile": [
            "http://hl7.eu/fhir/laboratory/StructureDefinition/Observation-resultslab-eu-lab"
          ]
        },
        "performer": [
          {
            "display": "The Central European Lab"
          }
        ],
        "category": [
          {
            "coding": [
              {
                "system": "http://terminology.hl7.org/CodeSystem/observation-category",
                "code": "laboratory"
              }
            ]
          }
        ],
        "code": {
          "coding": [
            {
              "code": "2823-3",
              "system": "http://loinc.org",
              "display": "Potassium [Moles/volume] in Serum or Plasma"
            }
          ],
          "text": "Potassium [Moles/volume] in Serum or Plasma"
        },
        "valueQuantity": {
          "system": "http://unitsofmeasure.org",
          "value": 4.1,
          "unit": "mmol/L",
          "code": "mmol/L"
        },
        "referenceRange": [
          {
            "low": {
              "value": 3.5,
              "code": "mmol/L",
              "system": "http://unitsofmeasure.org"
            }
          },
          {
            "high": {
              "value": 5.1,
              "code": "mmol/L",
              "system": "http://unitsofmeasure.org"
            }
          }
        ],
        "text": {
          "status": "generated",
          "div": "<div xmlns=\"http://www.w3.org/1999/xhtml\"><table class=\"hl7__eu__lab__report\"><tr><th>Test</th><th>19-Jul-2025</th><th>Reference&#xA0;Range</th><th>Unit</th></tr><tr><td>Potassium [Moles/volume] in Serum or Plasma</td><td>4.1</td><td>3.5 - 5.1</td><td></td><td>mmol/L</td></tr></table></div>"
        },
        "status": "final",
        "subject": {
          "reference": "urn:uuid:01469b58-e2ac-4252-ad24-90a408b24235",
          "display": "Noé Naranjo"
        },
        "effectiveDateTime": "2025-07-19T08:56:28Z"
      }
    },
    {
      "fullUrl": "urn:uuid:78730688-2ae9-4fe5-b2c1-9c84435f1348",
      "resource": {
        "resourceType": "Observation",
        "id": "78730688-2ae9-4fe5-b2c1-9c84435f1348",
        "meta": {
          "profile": [
            "http://hl7.eu/fhir/laboratory/StructureDefinition/Observation-resultslab-eu-lab"
          ]
        },
        "performer": [
          {
            "display": "The Central European Lab"
          }
        ],
        "category": [
          {
            "coding": [
              {
                "system": "http://terminology.hl7.org/CodeSystem/observation-category",
                "code": "laboratory"
              }
            ]
          }
        ],
        "code": {
          "coding": [
            {
              "code": "2075-0",
              "system": "http://loinc.org",
              "display": "Chloride [Moles/volume] in Serum or Plasma"
            }
          ],
          "text": "Chloride [Moles/volume] in Serum or Plasma"
        },
        "valueQuantity": {
          "system": "http://unitsofmeasure.org",
          "value": 101.6,
          "unit": "mmol/L",
          "code": "mmol/L"
        },
        "referenceRange": [
          {
            "low": {
              "value": 98,
              "code": "mmol/L",
              "system": "http://unitsofmeasure.org"
            }
          },
          {
            "high": {
              "value": 114,
              "code": "mmol/L",
              "system": "http://unitsofmeasure.org"
            }
          }
        ],
        "text": {
          "status": "generated",
          "div": "<div xmlns=\"http://www.w3.org/1999/xhtml\"><table class=\"hl7__eu__lab__report\"><tr><th>Test</th><th>19-Jul-2025</th><th>Reference&#xA0;Range</th><th>Unit</th></tr><tr><td>Chloride [Moles/volume] in Serum or Plasma</td><td>101.6</td><td>98 - 114</td><td></td><td>mmol/L</td></tr></table></div>"
        },
        "status": "final",
        "subject": {
          "reference": "urn:uuid:01469b58-e2ac-4252-ad24-90a408b24235",
          "display": "Noé Naranjo"
        },
        "effectiveDateTime": "2025-07-19T08:56:28Z"
      }
    },
    {
      "fullUrl": "urn:uuid:476bf7ed-2d34-4431-87c1-54826b5e87f4",
      "resource": {
        "resourceType": "Observation",
        "id": "476bf7ed-2d34-4431-87c1-54826b5e87f4",
        "meta": {
          "profile": [
            "http://hl7.eu/fhir/laboratory/StructureDefinition/Observation-resultslab-eu-lab"
          ]
        },
        "performer": [
          {
            "display": "The Central European Lab"
          }
        ],
        "category": [
          {
            "coding": [
              {
                "system": "http://terminology.hl7.org/CodeSystem/observation-category",
                "code": "laboratory"
              }
            ]
          }
        ],
        "code": {
          "coding": [
            {
              "code": "2028-9",
              "system": "http://loinc.org",
              "display": "Carbon dioxide, total [Moles/volume] in Serum or Plasma"
            }
          ],
          "text": "Carbon dioxide, total [Moles/volume] in Serum or Plasma"
        },
        "valueQuantity": {
          "system": "http://unitsofmeasure.org",
          "value": 22.2,
          "unit": "mmol/L",
          "code": "mmol/L"
        },
        "referenceRange": [
          {
            "low": {
              "value": 22,
              "code": "mmol/L",
              "system": "http://unitsofmeasure.org"
            }
          },
          {
            "high": {
              "value": 29,
              "code": "mmol/L",
              "system": "http://unitsofmeasure.org"
            }
          }
        ],
        "text": {
          "status": "generated",
          "div": "<div xmlns=\"http://www.w3.org/1999/xhtml\"><table class=\"hl7__eu__lab__report\"><tr><th>Test</th><th>19-Jul-2025</th><th>Reference&#xA0;Range</th><th>Unit</th></tr><tr><td>Carbon dioxide, total [Moles/volume] in Serum or Plasma</td><td>22.2</td><td>22 - 29</td><td></td><td>mmol/L</td></tr></table></div>"
        },
        "status": "final",
        "subject": {
          "reference": "urn:uuid:01469b58-e2ac-4252-ad24-90a408b24235",
          "display": "Noé Naranjo"
        },
        "effectiveDateTime": "2025-07-19T08:56:28Z"
      }
    },
    {
      "fullUrl": "urn:uuid:4abdc326-0905-4bce-ad9f-0e9166865bba",
      "resource": {
        "resourceType": "Observation",
        "id": "4abdc326-0905-4bce-ad9f-0e9166865bba",
        "meta": {
          "profile": [
            "http://hl7.eu/fhir/laboratory/StructureDefinition/Observation-resultslab-eu-lab"
          ]
        },
        "performer": [
          {
            "display": "The Central European Lab"
          }
        ],
        "category": [
          {
            "coding": [
              {
                "system": "http://terminology.hl7.org/CodeSystem/observation-category",
                "code": "laboratory"
              }
            ]
          }
        ],
        "code": {
          "coding": [
            {
              "code": "5767-9",
              "system": "http://loinc.org",
              "display": "Appearance of Urine"
            }
          ],
          "text": "Appearance of Urine"
        },
        "text": {
          "status": "generated",
          "div": "<div xmlns=\"http://www.w3.org/1999/xhtml\"><table class=\"hl7__eu__lab__report\"><tr><th>Test</th><th>19-Jul-2025</th><th>Reference&#xA0;Range</th><th>Unit</th></tr><tr><td>Appearance of Urine</td></tr></table></div>"
        },
        "status": "final",
        "subject": {
          "reference": "urn:uuid:01469b58-e2ac-4252-ad24-90a408b24235",
          "display": "Noé Naranjo"
        },
        "effectiveDateTime": "2025-07-19T08:56:28Z"
      }
    },
    {
      "fullUrl": "urn:uuid:818201dd-4206-4408-9290-34e5b2c1ffee",
      "resource": {
        "resourceType": "Observation",
        "id": "818201dd-4206-4408-9290-34e5b2c1ffee",
        "meta": {
          "profile": [
            "http://hl7.eu/fhir/laboratory/StructureDefinition/Observation-resultslab-eu-lab"
          ]
        },
        "performer": [
          {
            "display": "The Central European Lab"
          }
        ],
        "category": [
          {
            "coding": [
              {
                "system": "http://terminology.hl7.org/CodeSystem/observation-category",
                "code": "laboratory"
              }
            ]
          }
        ],
        "code": {
          "coding": [
            {
              "code": "34533-0",
              "system": "http://loinc.org",
              "display": "Odor of Urine"
            }
          ],
          "text": "Odor of Urine"
        },
        "text": {
          "status": "generated",
          "div": "<div xmlns=\"http://www.w3.org/1999/xhtml\"><table class=\"hl7__eu__lab__report\"><tr><th>Test</th><th>19-Jul-2025</th><th>Reference&#xA0;Range</th><th>Unit</th></tr><tr><td>Odor of Urine</td></tr></table></div>"
        },
        "status": "final",
        "subject": {
          "reference": "urn:uuid:01469b58-e2ac-4252-ad24-90a408b24235",
          "display": "Noé Naranjo"
        },
        "effectiveDateTime": "2025-07-19T08:56:28Z"
      }
    },
    {
      "fullUrl": "urn:uuid:6df37dae-3e09-4a41-b369-f4b41762e416",
      "resource": {
        "resourceType": "Observation",
        "id": "6df37dae-3e09-4a41-b369-f4b41762e416",
        "meta": {
          "profile": [
            "http://hl7.eu/fhir/laboratory/StructureDefinition/Observation-resultslab-eu-lab"
          ]
        },
        "performer": [
          {
            "display": "The Central European Lab"
          }
        ],
        "category": [
          {
            "coding": [
              {
                "system": "http://terminology.hl7.org/CodeSystem/observation-category",
                "code": "laboratory"
              }
            ]
          }
        ],
        "code": {
          "coding": [
            {
              "code": "32167-9",
              "system": "http://loinc.org",
              "display": "Clarity of Urine"
            }
          ],
          "text": "Clarity of Urine"
        },
        "text": {
          "status": "generated",
          "div": "<div xmlns=\"http://www.w3.org/1999/xhtml\"><table class=\"hl7__eu__lab__report\"><tr><th>Test</th><th>19-Jul-2025</th><th>Reference&#xA0;Range</th><th>Unit</th></tr><tr><td>Clarity of Urine</td></tr></table></div>"
        },
        "status": "final",
        "subject": {
          "reference": "urn:uuid:01469b58-e2ac-4252-ad24-90a408b24235",
          "display": "Noé Naranjo"
        },
        "effectiveDateTime": "2025-07-19T08:56:28Z"
      }
    },
    {
      "fullUrl": "urn:uuid:d1e165a3-b241-47db-829a-91cc1e3f2805",
      "resource": {
        "resourceType": "Observation",
        "id": "d1e165a3-b241-47db-829a-91cc1e3f2805",
        "meta": {
          "profile": [
            "http://hl7.eu/fhir/laboratory/StructureDefinition/Observation-resultslab-eu-lab"
          ]
        },
        "performer": [
          {
            "display": "The Central European Lab"
          }
        ],
        "category": [
          {
            "coding": [
              {
                "system": "http://terminology.hl7.org/CodeSystem/observation-category",
                "code": "laboratory"
              }
            ]
          }
        ],
        "code": {
          "coding": [
            {
              "code": "5778-6",
              "system": "http://loinc.org",
              "display": "Color of Urine"
            }
          ],
          "text": "Color of Urine"
        },
        "text": {
          "status": "generated",
          "div": "<div xmlns=\"http://www.w3.org/1999/xhtml\"><table class=\"hl7__eu__lab__report\"><tr><th>Test</th><th>19-Jul-2025</th><th>Reference&#xA0;Range</th><th>Unit</th></tr><tr><td>Color of Urine</td></tr></table></div>"
        },
        "status": "final",
        "subject": {
          "reference": "urn:uuid:01469b58-e2ac-4252-ad24-90a408b24235",
          "display": "Noé Naranjo"
        },
        "effectiveDateTime": "2025-07-19T08:56:28Z"
      }
    },
    {
      "fullUrl": "urn:uuid:167d742c-12ca-4b67-a731-aab9485c4b06",
      "resource": {
        "resourceType": "Observation",
        "id": "167d742c-12ca-4b67-a731-aab9485c4b06",
        "meta": {
          "profile": [
            "http://hl7.eu/fhir/laboratory/StructureDefinition/Observation-resultslab-eu-lab"
          ]
        },
        "performer": [
          {
            "display": "The Central European Lab"
          }
        ],
        "category": [
          {
            "coding": [
              {
                "system": "http://terminology.hl7.org/CodeSystem/observation-category",
                "code": "laboratory"
              }
            ]
          }
        ],
        "code": {
          "coding": [
            {
              "code": "5792-7",
              "system": "http://loinc.org",
              "display": "Glucose [Mass/volume] in Urine by Test strip"
            }
          ],
          "text": "Glucose [Mass/volume] in Urine by Test strip"
        },
        "valueQuantity": {
          "system": "http://unitsofmeasure.org",
          "value": 2.2,
          "unit": "mg/dL",
          "code": "mg/dL"
        },
        "referenceRange": [
          {
            "low": {
              "value": 0,
              "code": "mg/dL",
              "system": "http://unitsofmeasure.org"
            }
          },
          {
            "high": {
              "value": 1,
              "code": "mg/dL",
              "system": "http://unitsofmeasure.org"
            }
          }
        ],
        "interpretation": [
          {
            "coding": [
              {
                "code": "H",
                "system": "http://terminology.hl7.org/CodeSystem/v3-ObservationInterpretation",
                "display": "High"
              }
            ]
          }
        ],
        "text": {
          "status": "generated",
          "div": "<div xmlns=\"http://www.w3.org/1999/xhtml\"><table class=\"hl7__eu__lab__report\"><tr><th>Test</th><th>19-Jul-2025</th><th>Reference&#xA0;Range</th><th>Unit</th></tr><tr><td>Glucose [Mass/volume] in Urine by Test strip</td><td>2.2</td><td>0 - 1</td><td>H</td><td>mg/dL</td></tr></table></div>"
        },
        "status": "final",
        "subject": {
          "reference": "urn:uuid:01469b58-e2ac-4252-ad24-90a408b24235",
          "display": "Noé Naranjo"
        },
        "effectiveDateTime": "2025-07-19T08:56:28Z"
      }
    },
    {
      "fullUrl": "urn:uuid:51384a9a-2532-46a8-8ecf-b5a7d9101698",
      "resource": {
        "resourceType": "Observation",
        "id": "51384a9a-2532-46a8-8ecf-b5a7d9101698",
        "meta": {
          "profile": [
            "http://hl7.eu/fhir/laboratory/StructureDefinition/Observation-resultslab-eu-lab"
          ]
        },
        "performer": [
          {
            "display": "The Central European Lab"
          }
        ],
        "category": [
          {
            "coding": [
              {
                "system": "http://terminology.hl7.org/CodeSystem/observation-category",
                "code": "laboratory"
              }
            ]
          }
        ],
        "code": {
          "coding": [
            {
              "code": "25428-4",
              "system": "http://loinc.org",
              "display": "Glucose [Presence] in Urine by Test strip"
            }
          ],
          "text": "Glucose [Presence] in Urine by Test strip"
        },
        "text": {
          "status": "generated",
          "div": "<div xmlns=\"http://www.w3.org/1999/xhtml\"><table class=\"hl7__eu__lab__report\"><tr><th>Test</th><th>19-Jul-2025</th><th>Reference&#xA0;Range</th><th>Unit</th></tr><tr><td>Glucose [Presence] in Urine by Test strip</td></tr></table></div>"
        },
        "status": "final",
        "subject": {
          "reference": "urn:uuid:01469b58-e2ac-4252-ad24-90a408b24235",
          "display": "Noé Naranjo"
        },
        "effectiveDateTime": "2025-07-19T08:56:28Z"
      }
    },
    {
      "fullUrl": "urn:uuid:efe84fce-7933-4c08-ae69-c7bb97c9a82a",
      "resource": {
        "resourceType": "Observation",
        "id": "efe84fce-7933-4c08-ae69-c7bb97c9a82a",
        "meta": {
          "profile": [
            "http://hl7.eu/fhir/laboratory/StructureDefinition/Observation-resultslab-eu-lab"
          ]
        },
        "performer": [
          {
            "display": "The Central European Lab"
          }
        ],
        "category": [
          {
            "coding": [
              {
                "system": "http://terminology.hl7.org/CodeSystem/observation-category",
                "code": "laboratory"
              }
            ]
          }
        ],
        "code": {
          "coding": [
            {
              "code": "20505-4",
              "system": "http://loinc.org",
              "display": "Bilirubin.total [Mass/volume] in Urine by Test strip"
            }
          ],
          "text": "Bilirubin.total [Mass/volume] in Urine by Test strip"
        },
        "valueQuantity": {
          "system": "http://unitsofmeasure.org",
          "value": 0.7,
          "unit": "mg/dL",
          "code": "mg/dL"
        },
        "referenceRange": [
          {
            "low": {
              "value": 0.1,
              "code": "mg/dL",
              "system": "http://unitsofmeasure.org"
            }
          },
          {
            "high": {
              "value": 1.2,
              "code": "mg/dL",
              "system": "http://unitsofmeasure.org"
            }
          }
        ],
        "text": {
          "status": "generated",
          "div": "<div xmlns=\"http://www.w3.org/1999/xhtml\"><table class=\"hl7__eu__lab__report\"><tr><th>Test</th><th>19-Jul-2025</th><th>Reference&#xA0;Range</th><th>Unit</th></tr><tr><td>Bilirubin.total [Mass/volume] in Urine by Test strip</td><td>0.7</td><td>0.1 - 1.2</td><td></td><td>mg/dL</td></tr></table></div>"
        },
        "status": "final",
        "subject": {
          "reference": "urn:uuid:01469b58-e2ac-4252-ad24-90a408b24235",
          "display": "Noé Naranjo"
        },
        "effectiveDateTime": "2025-07-19T08:56:28Z"
      }
    },
    {
      "fullUrl": "urn:uuid:42c30544-7a85-4966-8634-626eb5860611",
      "resource": {
        "resourceType": "Observation",
        "id": "42c30544-7a85-4966-8634-626eb5860611",
        "meta": {
          "profile": [
            "http://hl7.eu/fhir/laboratory/StructureDefinition/Observation-resultslab-eu-lab"
          ]
        },
        "performer": [
          {
            "display": "The Central European Lab"
          }
        ],
        "category": [
          {
            "coding": [
              {
                "system": "http://terminology.hl7.org/CodeSystem/observation-category",
                "code": "laboratory"
              }
            ]
          }
        ],
        "code": {
          "coding": [
            {
              "code": "5770-3",
              "system": "http://loinc.org",
              "display": "Bilirubin.total [Presence] in Urine by Test strip"
            }
          ],
          "text": "Bilirubin.total [Presence] in Urine by Test strip"
        },
        "text": {
          "status": "generated",
          "div": "<div xmlns=\"http://www.w3.org/1999/xhtml\"><table class=\"hl7__eu__lab__report\"><tr><th>Test</th><th>19-Jul-2025</th><th>Reference&#xA0;Range</th><th>Unit</th></tr><tr><td>Bilirubin.total [Presence] in Urine by Test strip</td></tr></table></div>"
        },
        "status": "final",
        "subject": {
          "reference": "urn:uuid:01469b58-e2ac-4252-ad24-90a408b24235",
          "display": "Noé Naranjo"
        },
        "effectiveDateTime": "2025-07-19T08:56:28Z"
      }
    },
    {
      "fullUrl": "urn:uuid:e3ea0ab8-7ac1-462e-b574-2b8a7e8e95db",
      "resource": {
        "resourceType": "Observation",
        "id": "e3ea0ab8-7ac1-462e-b574-2b8a7e8e95db",
        "meta": {
          "profile": [
            "http://hl7.eu/fhir/laboratory/StructureDefinition/Observation-resultslab-eu-lab"
          ]
        },
        "performer": [
          {
            "display": "The Central European Lab"
          }
        ],
        "category": [
          {
            "coding": [
              {
                "system": "http://terminology.hl7.org/CodeSystem/observation-category",
                "code": "laboratory"
              }
            ]
          }
        ],
        "code": {
          "coding": [
            {
              "code": "5797-6",
              "system": "http://loinc.org",
              "display": "Ketones [Mass/volume] in Urine by Test strip"
            }
          ],
          "text": "Ketones [Mass/volume] in Urine by Test strip"
        },
        "valueQuantity": {
          "system": "http://unitsofmeasure.org",
          "value": 17,
          "unit": "mg/dL",
          "code": "mg/dL"
        },
        "referenceRange": [
          {
            "low": {
              "value": 0,
              "code": "mg/dL",
              "system": "http://unitsofmeasure.org"
            }
          },
          {
            "high": {
              "value": 20,
              "code": "mg/dL",
              "system": "http://unitsofmeasure.org"
            }
          }
        ],
        "text": {
          "status": "generated",
          "div": "<div xmlns=\"http://www.w3.org/1999/xhtml\"><table class=\"hl7__eu__lab__report\"><tr><th>Test</th><th>19-Jul-2025</th><th>Reference&#xA0;Range</th><th>Unit</th></tr><tr><td>Ketones [Mass/volume] in Urine by Test strip</td><td>17.0</td><td>0 - 20</td><td></td><td>mg/dL</td></tr></table></div>"
        },
        "status": "final",
        "subject": {
          "reference": "urn:uuid:01469b58-e2ac-4252-ad24-90a408b24235",
          "display": "Noé Naranjo"
        },
        "effectiveDateTime": "2025-07-19T08:56:28Z"
      }
    },
    {
      "fullUrl": "urn:uuid:b66f6931-f38b-4ef9-b5af-cf12af34071d",
      "resource": {
        "resourceType": "Observation",
        "id": "b66f6931-f38b-4ef9-b5af-cf12af34071d",
        "meta": {
          "profile": [
            "http://hl7.eu/fhir/laboratory/StructureDefinition/Observation-resultslab-eu-lab"
          ]
        },
        "performer": [
          {
            "display": "The Central European Lab"
          }
        ],
        "category": [
          {
            "coding": [
              {
                "system": "http://terminology.hl7.org/CodeSystem/observation-category",
                "code": "laboratory"
              }
            ]
          }
        ],
        "code": {
          "coding": [
            {
              "code": "2514-8",
              "system": "http://loinc.org",
              "display": "Ketones [Presence] in Urine by Test strip"
            }
          ],
          "text": "Ketones [Presence] in Urine by Test strip"
        },
        "text": {
          "status": "generated",
          "div": "<div xmlns=\"http://www.w3.org/1999/xhtml\"><table class=\"hl7__eu__lab__report\"><tr><th>Test</th><th>19-Jul-2025</th><th>Reference&#xA0;Range</th><th>Unit</th></tr><tr><td>Ketones [Presence] in Urine by Test strip</td></tr></table></div>"
        },
        "status": "final",
        "subject": {
          "reference": "urn:uuid:01469b58-e2ac-4252-ad24-90a408b24235",
          "display": "Noé Naranjo"
        },
        "effectiveDateTime": "2025-07-19T08:56:28Z"
      }
    },
    {
      "fullUrl": "urn:uuid:813b173c-22a9-4717-b39b-4f450eb8bd58",
      "resource": {
        "resourceType": "Observation",
        "id": "813b173c-22a9-4717-b39b-4f450eb8bd58",
        "meta": {
          "profile": [
            "http://hl7.eu/fhir/laboratory/StructureDefinition/Observation-resultslab-eu-lab"
          ]
        },
        "performer": [
          {
            "display": "The Central European Lab"
          }
        ],
        "category": [
          {
            "coding": [
              {
                "system": "http://terminology.hl7.org/CodeSystem/observation-category",
                "code": "laboratory"
              }
            ]
          }
        ],
        "code": {
          "coding": [
            {
              "code": "5811-5",
              "system": "http://loinc.org",
              "display": "Specific gravity of Urine by Test strip"
            }
          ],
          "text": "Specific gravity of Urine by Test strip"
        },
        "valueQuantity": {
          "system": "http://unitsofmeasure.org",
          "value": 1,
          "unit": "{nominal}",
          "code": "{nominal}"
        },
        "referenceRange": [
          {
            "low": {
              "value": 1.005,
              "code": "g/mL",
              "system": "http://unitsofmeasure.org"
            }
          },
          {
            "high": {
              "value": 1.03,
              "code": "g/mL",
              "system": "http://unitsofmeasure.org"
            }
          }
        ],
        "interpretation": [
          {
            "coding": [
              {
                "code": "L",
                "system": "http://terminology.hl7.org/CodeSystem/v3-ObservationInterpretation",
                "display": "Low"
              }
            ]
          }
        ],
        "text": {
          "status": "generated",
          "div": "<div xmlns=\"http://www.w3.org/1999/xhtml\"><table class=\"hl7__eu__lab__report\"><tr><th>Test</th><th>19-Jul-2025</th><th>Reference&#xA0;Range</th><th>Unit</th></tr><tr><td>Specific gravity of Urine by Test strip</td><td>1.0</td><td>1.005 - 1.03</td><td>L</td><td>{nominal}</td></tr></table></div>"
        },
        "status": "final",
        "subject": {
          "reference": "urn:uuid:01469b58-e2ac-4252-ad24-90a408b24235",
          "display": "Noé Naranjo"
        },
        "effectiveDateTime": "2025-07-19T08:56:28Z"
      }
    },
    {
      "fullUrl": "urn:uuid:2f1a02c7-004d-4231-a527-4cd79d860b4f",
      "resource": {
        "resourceType": "Observation",
        "id": "2f1a02c7-004d-4231-a527-4cd79d860b4f",
        "meta": {
          "profile": [
            "http://hl7.eu/fhir/laboratory/StructureDefinition/Observation-resultslab-eu-lab"
          ]
        },
        "performer": [
          {
            "display": "The Central European Lab"
          }
        ],
        "category": [
          {
            "coding": [
              {
                "system": "http://terminology.hl7.org/CodeSystem/observation-category",
                "code": "laboratory"
              }
            ]
          }
        ],
        "code": {
          "coding": [
            {
              "code": "5803-2",
              "system": "http://loinc.org",
              "display": "pH of Urine by Test strip"
            }
          ],
          "text": "pH of Urine by Test strip"
        },
        "valueQuantity": {
          "system": "http://unitsofmeasure.org",
          "value": 6,
          "unit": "pH",
          "code": "pH"
        },
        "referenceRange": [
          {
            "low": {
              "value": 4.5,
              "code": "pH",
              "system": "http://unitsofmeasure.org"
            }
          },
          {
            "high": {
              "value": 7.5,
              "code": "pH",
              "system": "http://unitsofmeasure.org"
            }
          }
        ],
        "text": {
          "status": "generated",
          "div": "<div xmlns=\"http://www.w3.org/1999/xhtml\"><table class=\"hl7__eu__lab__report\"><tr><th>Test</th><th>19-Jul-2025</th><th>Reference&#xA0;Range</th><th>Unit</th></tr><tr><td>pH of Urine by Test strip</td><td>6.0</td><td>4.5 - 7.5</td><td></td><td>pH</td></tr></table></div>"
        },
        "status": "final",
        "subject": {
          "reference": "urn:uuid:01469b58-e2ac-4252-ad24-90a408b24235",
          "display": "Noé Naranjo"
        },
        "effectiveDateTime": "2025-07-19T08:56:28Z"
      }
    },
    {
      "fullUrl": "urn:uuid:72658efe-7219-4f09-8373-540a5a8d250f",
      "resource": {
        "resourceType": "Observation",
        "id": "72658efe-7219-4f09-8373-540a5a8d250f",
        "meta": {
          "profile": [
            "http://hl7.eu/fhir/laboratory/StructureDefinition/Observation-resultslab-eu-lab"
          ]
        },
        "performer": [
          {
            "display": "The Central European Lab"
          }
        ],
        "category": [
          {
            "coding": [
              {
                "system": "http://terminology.hl7.org/CodeSystem/observation-category",
                "code": "laboratory"
              }
            ]
          }
        ],
        "code": {
          "coding": [
            {
              "code": "5804-0",
              "system": "http://loinc.org",
              "display": "Protein [Mass/volume] in Urine by Test strip"
            }
          ],
          "text": "Protein [Mass/volume] in Urine by Test strip"
        },
        "valueQuantity": {
          "system": "http://unitsofmeasure.org",
          "value": 196.3,
          "unit": "mg/dL",
          "code": "mg/dL"
        },
        "referenceRange": [
          {
            "low": {
              "value": 0,
              "code": "mg/dL",
              "system": "http://unitsofmeasure.org"
            }
          },
          {
            "high": {
              "value": 14,
              "code": "mg/dL",
              "system": "http://unitsofmeasure.org"
            }
          }
        ],
        "interpretation": [
          {
            "coding": [
              {
                "code": "H",
                "system": "http://terminology.hl7.org/CodeSystem/v3-ObservationInterpretation",
                "display": "High"
              }
            ]
          }
        ],
        "text": {
          "status": "generated",
          "div": "<div xmlns=\"http://www.w3.org/1999/xhtml\"><table class=\"hl7__eu__lab__report\"><tr><th>Test</th><th>19-Jul-2025</th><th>Reference&#xA0;Range</th><th>Unit</th></tr><tr><td>Protein [Mass/volume] in Urine by Test strip</td><td>196.3</td><td>0 - 14</td><td>H</td><td>mg/dL</td></tr></table></div>"
        },
        "status": "final",
        "subject": {
          "reference": "urn:uuid:01469b58-e2ac-4252-ad24-90a408b24235",
          "display": "Noé Naranjo"
        },
        "effectiveDateTime": "2025-07-19T08:56:28Z"
      }
    },
    {
      "fullUrl": "urn:uuid:30986a39-b5b2-4c53-a7e0-de3089518919",
      "resource": {
        "resourceType": "Observation",
        "id": "30986a39-b5b2-4c53-a7e0-de3089518919",
        "meta": {
          "profile": [
            "http://hl7.eu/fhir/laboratory/StructureDefinition/Observation-resultslab-eu-lab"
          ]
        },
        "performer": [
          {
            "display": "The Central European Lab"
          }
        ],
        "category": [
          {
            "coding": [
              {
                "system": "http://terminology.hl7.org/CodeSystem/observation-category",
                "code": "laboratory"
              }
            ]
          }
        ],
        "code": {
          "coding": [
            {
              "code": "20454-5",
              "system": "http://loinc.org",
              "display": "Protein [Presence] in Urine by Test strip"
            }
          ],
          "text": "Protein [Presence] in Urine by Test strip"
        },
        "text": {
          "status": "generated",
          "div": "<div xmlns=\"http://www.w3.org/1999/xhtml\"><table class=\"hl7__eu__lab__report\"><tr><th>Test</th><th>19-Jul-2025</th><th>Reference&#xA0;Range</th><th>Unit</th></tr><tr><td>Protein [Presence] in Urine by Test strip</td></tr></table></div>"
        },
        "status": "final",
        "subject": {
          "reference": "urn:uuid:01469b58-e2ac-4252-ad24-90a408b24235",
          "display": "Noé Naranjo"
        },
        "effectiveDateTime": "2025-07-19T08:56:28Z"
      }
    },
    {
      "fullUrl": "urn:uuid:88807685-89c8-4b07-99ed-8d4777ab9674",
      "resource": {
        "resourceType": "Observation",
        "id": "88807685-89c8-4b07-99ed-8d4777ab9674",
        "meta": {
          "profile": [
            "http://hl7.eu/fhir/laboratory/StructureDefinition/Observation-resultslab-eu-lab"
          ]
        },
        "performer": [
          {
            "display": "The Central European Lab"
          }
        ],
        "category": [
          {
            "coding": [
              {
                "system": "http://terminology.hl7.org/CodeSystem/observation-category",
                "code": "laboratory"
              }
            ]
          }
        ],
        "code": {
          "coding": [
            {
              "code": "5802-4",
              "system": "http://loinc.org",
              "display": "Nitrite [Presence] in Urine by Test strip"
            }
          ],
          "text": "Nitrite [Presence] in Urine by Test strip"
        },
        "text": {
          "status": "generated",
          "div": "<div xmlns=\"http://www.w3.org/1999/xhtml\"><table class=\"hl7__eu__lab__report\"><tr><th>Test</th><th>19-Jul-2025</th><th>Reference&#xA0;Range</th><th>Unit</th></tr><tr><td>Nitrite [Presence] in Urine by Test strip</td></tr></table></div>"
        },
        "status": "final",
        "subject": {
          "reference": "urn:uuid:01469b58-e2ac-4252-ad24-90a408b24235",
          "display": "Noé Naranjo"
        },
        "effectiveDateTime": "2025-07-19T08:56:28Z"
      }
    },
    {
      "fullUrl": "urn:uuid:e141ff5a-fbbc-45ed-a68b-c0631b3a7873",
      "resource": {
        "resourceType": "Observation",
        "id": "e141ff5a-fbbc-45ed-a68b-c0631b3a7873",
        "meta": {
          "profile": [
            "http://hl7.eu/fhir/laboratory/StructureDefinition/Observation-resultslab-eu-lab"
          ]
        },
        "performer": [
          {
            "display": "The Central European Lab"
          }
        ],
        "category": [
          {
            "coding": [
              {
                "system": "http://terminology.hl7.org/CodeSystem/observation-category",
                "code": "laboratory"
              }
            ]
          }
        ],
        "code": {
          "coding": [
            {
              "code": "5794-3",
              "system": "http://loinc.org",
              "display": "Hemoglobin [Presence] in Urine by Test strip"
            }
          ],
          "text": "Hemoglobin [Presence] in Urine by Test strip"
        },
        "text": {
          "status": "generated",
          "div": "<div xmlns=\"http://www.w3.org/1999/xhtml\"><table class=\"hl7__eu__lab__report\"><tr><th>Test</th><th>19-Jul-2025</th><th>Reference&#xA0;Range</th><th>Unit</th></tr><tr><td>Hemoglobin [Presence] in Urine by Test strip</td></tr></table></div>"
        },
        "status": "final",
        "subject": {
          "reference": "urn:uuid:01469b58-e2ac-4252-ad24-90a408b24235",
          "display": "Noé Naranjo"
        },
        "effectiveDateTime": "2025-07-19T08:56:28Z"
      }
    },
    {
      "fullUrl": "urn:uuid:1d417163-c02c-48a4-be81-faafd40a8207",
      "resource": {
        "resourceType": "Observation",
        "id": "1d417163-c02c-48a4-be81-faafd40a8207",
        "meta": {
          "profile": [
            "http://hl7.eu/fhir/laboratory/StructureDefinition/Observation-resultslab-eu-lab"
          ]
        },
        "performer": [
          {
            "display": "The Central European Lab"
          }
        ],
        "category": [
          {
            "coding": [
              {
                "system": "http://terminology.hl7.org/CodeSystem/observation-category",
                "code": "laboratory"
              }
            ]
          }
        ],
        "code": {
          "coding": [
            {
              "code": "5799-2",
              "system": "http://loinc.org",
              "display": "Leukocyte esterase [Presence] in Urine by Test strip"
            }
          ],
          "text": "Leukocyte esterase [Presence] in Urine by Test strip"
        },
        "text": {
          "status": "generated",
          "div": "<div xmlns=\"http://www.w3.org/1999/xhtml\"><table class=\"hl7__eu__lab__report\"><tr><th>Test</th><th>19-Jul-2025</th><th>Reference&#xA0;Range</th><th>Unit</th></tr><tr><td>Leukocyte esterase [Presence] in Urine by Test strip</td></tr></table></div>"
        },
        "status": "final",
        "subject": {
          "reference": "urn:uuid:01469b58-e2ac-4252-ad24-90a408b24235",
          "display": "Noé Naranjo"
        },
        "effectiveDateTime": "2025-07-19T08:56:28Z"
      }
    },
    {
      "fullUrl": "urn:uuid:8f3703b6-ffdd-450a-8e4b-e4ef6803380e",
      "resource": {
        "resourceType": "Observation",
        "id": "8f3703b6-ffdd-450a-8e4b-e4ef6803380e",
        "meta": {
          "profile": [
            "http://hl7.eu/fhir/laboratory/StructureDefinition/Observation-resultslab-eu-lab"
          ]
        },
        "performer": [
          {
            "display": "The Central European Lab"
          }
        ],
        "category": [
          {
            "coding": [
              {
                "system": "http://terminology.hl7.org/CodeSystem/observation-category",
                "code": "laboratory"
              }
            ]
          }
        ],
        "code": {
          "coding": [
            {
              "code": "4548-4",
              "system": "http://loinc.org",
              "display": "Hemoglobin A1c/Hemoglobin.total in Blood"
            }
          ],
          "text": "Hemoglobin A1c/Hemoglobin.total in Blood"
        },
        "valueQuantity": {
          "system": "http://unitsofmeasure.org",
          "value": 5.5,
          "unit": "%",
          "code": "%"
        },
        "referenceRange": [
          {
            "low": {
              "value": 4,
              "code": "%",
              "system": "http://unitsofmeasure.org"
            }
          },
          {
            "high": {
              "value": 6,
              "code": "%",
              "system": "http://unitsofmeasure.org"
            }
          }
        ],
        "text": {
          "status": "generated",
          "div": "<div xmlns=\"http://www.w3.org/1999/xhtml\"><table class=\"hl7__eu__lab__report\"><tr><th>Test</th><th>19-Jul-2025</th><th>Reference&#xA0;Range</th><th>Unit</th></tr><tr><td>Hemoglobin A1c/Hemoglobin.total in Blood</td><td>5.5</td><td>4 - 6</td><td></td><td>%</td></tr></table></div>"
        },
        "status": "final",
        "subject": {
          "reference": "urn:uuid:01469b58-e2ac-4252-ad24-90a408b24235",
          "display": "Noé Naranjo"
        },
        "effectiveDateTime": "2025-07-19T08:56:28Z"
      }
    },
    {
      "fullUrl": "urn:uuid:c44098b2-db5c-4ffc-b1ef-e654469e2561",
      "resource": {
        "resourceType": "Observation",
        "id": "c44098b2-db5c-4ffc-b1ef-e654469e2561",
        "meta": {
          "profile": [
            "http://hl7.eu/fhir/laboratory/StructureDefinition/Observation-resultslab-eu-lab"
          ]
        },
        "performer": [
          {
            "display": "The Central European Lab"
          }
        ],
        "category": [
          {
            "coding": [
              {
                "system": "http://terminology.hl7.org/CodeSystem/observation-category",
                "code": "laboratory"
              }
            ]
          }
        ],
        "code": {
          "coding": [
            {
              "code": "2339-0",
              "system": "http://loinc.org",
              "display": "Glucose [Mass/volume] in Blood"
            }
          ],
          "text": "Glucose [Mass/volume] in Blood"
        },
        "valueQuantity": {
          "system": "http://unitsofmeasure.org",
          "value": 66.4,
          "unit": "mg/dL",
          "code": "mg/dL"
        },
        "referenceRange": [
          {
            "low": {
              "value": 70,
              "code": "mg/dL",
              "system": "http://unitsofmeasure.org"
            }
          },
          {
            "high": {
              "value": 140,
              "code": "mg/dL",
              "system": "http://unitsofmeasure.org"
            }
          }
        ],
        "interpretation": [
          {
            "coding": [
              {
                "code": "L",
                "system": "http://terminology.hl7.org/CodeSystem/v3-ObservationInterpretation",
                "display": "Low"
              }
            ]
          }
        ],
        "text": {
          "status": "generated",
          "div": "<div xmlns=\"http://www.w3.org/1999/xhtml\"><table class=\"hl7__eu__lab__report\"><tr><th>Test</th><th>19-Jul-2025</th><th>Reference&#xA0;Range</th><th>Unit</th></tr><tr><td>Glucose [Mass/volume] in Blood</td><td>66.4</td><td>70 - 140</td><td>L</td><td>mg/dL</td></tr></table></div>"
        },
        "status": "final",
        "subject": {
          "reference": "urn:uuid:01469b58-e2ac-4252-ad24-90a408b24235",
          "display": "Noé Naranjo"
        },
        "effectiveDateTime": "2025-07-19T08:56:28Z"
      }
    },
    {
      "fullUrl": "urn:uuid:cc863da9-0e4d-46e1-a28d-8aab9523b2a4",
      "resource": {
        "resourceType": "Observation",
        "id": "cc863da9-0e4d-46e1-a28d-8aab9523b2a4",
        "meta": {
          "profile": [
            "http://hl7.eu/fhir/laboratory/StructureDefinition/Observation-resultslab-eu-lab"
          ]
        },
        "performer": [
          {
            "display": "The Central European Lab"
          }
        ],
        "category": [
          {
            "coding": [
              {
                "system": "http://terminology.hl7.org/CodeSystem/observation-category",
                "code": "laboratory"
              }
            ]
          }
        ],
        "code": {
          "coding": [
            {
              "code": "6299-2",
              "system": "http://loinc.org",
              "display": "Urea nitrogen [Mass/volume] in Blood"
            }
          ],
          "text": "Urea nitrogen [Mass/volume] in Blood"
        },
        "valueQuantity": {
          "system": "http://unitsofmeasure.org",
          "value": 16.6,
          "unit": "mg/dL",
          "code": "mg/dL"
        },
        "referenceRange": [
          {
            "low": {
              "value": 7,
              "code": "mg/dL",
              "system": "http://unitsofmeasure.org"
            }
          },
          {
            "high": {
              "value": 20,
              "code": "mg/dL",
              "system": "http://unitsofmeasure.org"
            }
          }
        ],
        "text": {
          "status": "generated",
          "div": "<div xmlns=\"http://www.w3.org/1999/xhtml\"><table class=\"hl7__eu__lab__report\"><tr><th>Test</th><th>19-Jul-2025</th><th>Reference&#xA0;Range</th><th>Unit</th></tr><tr><td>Urea nitrogen [Mass/volume] in Blood</td><td>16.6</td><td>7 - 20</td><td></td><td>mg/dL</td></tr></table></div>"
        },
        "status": "final",
        "subject": {
          "reference": "urn:uuid:01469b58-e2ac-4252-ad24-90a408b24235",
          "display": "Noé Naranjo"
        },
        "effectiveDateTime": "2025-07-19T08:56:28Z"
      }
    },
    {
      "fullUrl": "urn:uuid:fc6e1a28-3d4c-4cb8-8efa-b7ebab019c8f",
      "resource": {
        "resourceType": "Observation",
        "id": "fc6e1a28-3d4c-4cb8-8efa-b7ebab019c8f",
        "meta": {
          "profile": [
            "http://hl7.eu/fhir/laboratory/StructureDefinition/Observation-resultslab-eu-lab"
          ]
        },
        "performer": [
          {
            "display": "The Central European Lab"
          }
        ],
        "category": [
          {
            "coding": [
              {
                "system": "http://terminology.hl7.org/CodeSystem/observation-category",
                "code": "laboratory"
              }
            ]
          }
        ],
        "code": {
          "coding": [
            {
              "code": "38483-4",
              "system": "http://loinc.org",
              "display": "Creatinine [Mass/volume] in Blood"
            }
          ],
          "text": "Creatinine [Mass/volume] in Blood"
        },
        "valueQuantity": {
          "system": "http://unitsofmeasure.org",
          "value": 2,
          "unit": "mg/dL",
          "code": "mg/dL"
        },
        "referenceRange": [
          {
            "low": {
              "value": 0.9,
              "code": "mg/dL",
              "system": "http://unitsofmeasure.org"
            }
          },
          {
            "high": {
              "value": 1.3,
              "code": "mg/dL",
              "system": "http://unitsofmeasure.org"
            }
          }
        ],
        "interpretation": [
          {
            "coding": [
              {
                "code": "H",
                "system": "http://terminology.hl7.org/CodeSystem/v3-ObservationInterpretation",
                "display": "High"
              }
            ]
          }
        ],
        "text": {
          "status": "generated",
          "div": "<div xmlns=\"http://www.w3.org/1999/xhtml\"><table class=\"hl7__eu__lab__report\"><tr><th>Test</th><th>19-Jul-2025</th><th>Reference&#xA0;Range</th><th>Unit</th></tr><tr><td>Creatinine [Mass/volume] in Blood</td><td>2.0</td><td>0.9 - 1.3</td><td>H</td><td>mg/dL</td></tr></table></div>"
        },
        "status": "final",
        "subject": {
          "reference": "urn:uuid:01469b58-e2ac-4252-ad24-90a408b24235",
          "display": "Noé Naranjo"
        },
        "effectiveDateTime": "2025-07-19T08:56:28Z"
      }
    },
    {
      "fullUrl": "urn:uuid:64b4d395-b290-4d39-b0d0-c1418548e474",
      "resource": {
        "resourceType": "Observation",
        "id": "64b4d395-b290-4d39-b0d0-c1418548e474",
        "meta": {
          "profile": [
            "http://hl7.eu/fhir/laboratory/StructureDefinition/Observation-resultslab-eu-lab"
          ]
        },
        "performer": [
          {
            "display": "The Central European Lab"
          }
        ],
        "category": [
          {
            "coding": [
              {
                "system": "http://terminology.hl7.org/CodeSystem/observation-category",
                "code": "laboratory"
              }
            ]
          }
        ],
        "code": {
          "coding": [
            {
              "code": "49765-1",
              "system": "http://loinc.org",
              "display": "Calcium [Mass/volume] in Blood"
            }
          ],
          "text": "Calcium [Mass/volume] in Blood"
        },
        "valueQuantity": {
          "system": "http://unitsofmeasure.org",
          "value": 9.5,
          "unit": "mg/dL",
          "code": "mg/dL"
        },
        "referenceRange": [
          {
            "low": {
              "value": 8.5,
              "code": "mg/dL",
              "system": "http://unitsofmeasure.org"
            }
          },
          {
            "high": {
              "value": 10.5,
              "code": "mg/dL",
              "system": "http://unitsofmeasure.org"
            }
          }
        ],
        "text": {
          "status": "generated",
          "div": "<div xmlns=\"http://www.w3.org/1999/xhtml\"><table class=\"hl7__eu__lab__report\"><tr><th>Test</th><th>19-Jul-2025</th><th>Reference&#xA0;Range</th><th>Unit</th></tr><tr><td>Calcium [Mass/volume] in Blood</td><td>9.5</td><td>8.5 - 10.5</td><td></td><td>mg/dL</td></tr></table></div>"
        },
        "status": "final",
        "subject": {
          "reference": "urn:uuid:01469b58-e2ac-4252-ad24-90a408b24235",
          "display": "Noé Naranjo"
        },
        "effectiveDateTime": "2025-07-19T08:56:28Z"
      }
    },
    {
      "fullUrl": "urn:uuid:31fd0d1e-919e-4b89-85d7-516b67e7e78b",
      "resource": {
        "resourceType": "Observation",
        "id": "31fd0d1e-919e-4b89-85d7-516b67e7e78b",
        "meta": {
          "profile": [
            "http://hl7.eu/fhir/laboratory/StructureDefinition/Observation-resultslab-eu-lab"
          ]
        },
        "performer": [
          {
            "display": "The Central European Lab"
          }
        ],
        "category": [
          {
            "coding": [
              {
                "system": "http://terminology.hl7.org/CodeSystem/observation-category",
                "code": "laboratory"
              }
            ]
          }
        ],
        "code": {
          "coding": [
            {
              "code": "2947-0",
              "system": "http://loinc.org",
              "display": "Sodium [Moles/volume] in Blood"
            }
          ],
          "text": "Sodium [Moles/volume] in Blood"
        },
        "valueQuantity": {
          "system": "http://unitsofmeasure.org",
          "value": 141.8,
          "unit": "mmol/L",
          "code": "mmol/L"
        },
        "referenceRange": [
          {
            "low": {
              "value": 135,
              "code": "mmol/L",
              "system": "http://unitsofmeasure.org"
            }
          },
          {
            "high": {
              "value": 145,
              "code": "mmol/L",
              "system": "http://unitsofmeasure.org"
            }
          }
        ],
        "text": {
          "status": "generated",
          "div": "<div xmlns=\"http://www.w3.org/1999/xhtml\"><table class=\"hl7__eu__lab__report\"><tr><th>Test</th><th>19-Jul-2025</th><th>Reference&#xA0;Range</th><th>Unit</th></tr><tr><td>Sodium [Moles/volume] in Blood</td><td>141.8</td><td>135 - 145</td><td></td><td>mmol/L</td></tr></table></div>"
        },
        "status": "final",
        "subject": {
          "reference": "urn:uuid:01469b58-e2ac-4252-ad24-90a408b24235",
          "display": "Noé Naranjo"
        },
        "effectiveDateTime": "2025-07-19T08:56:28Z"
      }
    },
    {
      "fullUrl": "urn:uuid:5c840bd6-be31-467f-b6a9-589ca34ec180",
      "resource": {
        "resourceType": "Observation",
        "id": "5c840bd6-be31-467f-b6a9-589ca34ec180",
        "meta": {
          "profile": [
            "http://hl7.eu/fhir/laboratory/StructureDefinition/Observation-resultslab-eu-lab"
          ]
        },
        "performer": [
          {
            "display": "The Central European Lab"
          }
        ],
        "category": [
          {
            "coding": [
              {
                "system": "http://terminology.hl7.org/CodeSystem/observation-category",
                "code": "laboratory"
              }
            ]
          }
        ],
        "code": {
          "coding": [
            {
              "code": "6298-4",
              "system": "http://loinc.org",
              "display": "Potassium [Moles/volume] in Blood"
            }
          ],
          "text": "Potassium [Moles/volume] in Blood"
        },
        "valueQuantity": {
          "system": "http://unitsofmeasure.org",
          "value": 4.1,
          "unit": "mmol/L",
          "code": "mmol/L"
        },
        "referenceRange": [
          {
            "low": {
              "value": 3.5,
              "code": "mmol/L",
              "system": "http://unitsofmeasure.org"
            }
          },
          {
            "high": {
              "value": 5,
              "code": "mmol/L",
              "system": "http://unitsofmeasure.org"
            }
          }
        ],
        "text": {
          "status": "generated",
          "div": "<div xmlns=\"http://www.w3.org/1999/xhtml\"><table class=\"hl7__eu__lab__report\"><tr><th>Test</th><th>19-Jul-2025</th><th>Reference&#xA0;Range</th><th>Unit</th></tr><tr><td>Potassium [Moles/volume] in Blood</td><td>4.1</td><td>3.5 - 5</td><td></td><td>mmol/L</td></tr></table></div>"
        },
        "status": "final",
        "subject": {
          "reference": "urn:uuid:01469b58-e2ac-4252-ad24-90a408b24235",
          "display": "Noé Naranjo"
        },
        "effectiveDateTime": "2025-07-19T08:56:28Z"
      }
    },
    {
      "fullUrl": "urn:uuid:b06bd912-0183-47a0-8c8c-40c5d5309639",
      "resource": {
        "resourceType": "Observation",
        "id": "b06bd912-0183-47a0-8c8c-40c5d5309639",
        "meta": {
          "profile": [
            "http://hl7.eu/fhir/laboratory/StructureDefinition/Observation-resultslab-eu-lab"
          ]
        },
        "performer": [
          {
            "display": "The Central European Lab"
          }
        ],
        "category": [
          {
            "coding": [
              {
                "system": "http://terminology.hl7.org/CodeSystem/observation-category",
                "code": "laboratory"
              }
            ]
          }
        ],
        "code": {
          "coding": [
            {
              "code": "2069-3",
              "system": "http://loinc.org",
              "display": "Chloride [Moles/volume] in Blood"
            }
          ],
          "text": "Chloride [Moles/volume] in Blood"
        },
        "valueQuantity": {
          "system": "http://unitsofmeasure.org",
          "value": 101.6,
          "unit": "mmol/L",
          "code": "mmol/L"
        },
        "referenceRange": [
          {
            "low": {
              "value": 98,
              "code": "mmol/L",
              "system": "http://unitsofmeasure.org"
            }
          },
          {
            "high": {
              "value": 110,
              "code": "mmol/L",
              "system": "http://unitsofmeasure.org"
            }
          }
        ],
        "text": {
          "status": "generated",
          "div": "<div xmlns=\"http://www.w3.org/1999/xhtml\"><table class=\"hl7__eu__lab__report\"><tr><th>Test</th><th>19-Jul-2025</th><th>Reference&#xA0;Range</th><th>Unit</th></tr><tr><td>Chloride [Moles/volume] in Blood</td><td>101.6</td><td>98 - 110</td><td></td><td>mmol/L</td></tr></table></div>"
        },
        "status": "final",
        "subject": {
          "reference": "urn:uuid:01469b58-e2ac-4252-ad24-90a408b24235",
          "display": "Noé Naranjo"
        },
        "effectiveDateTime": "2025-07-19T08:56:28Z"
      }
    },
    {
      "fullUrl": "urn:uuid:1e9c98b2-177e-41d2-9437-754b010de323",
      "resource": {
        "resourceType": "Observation",
        "id": "1e9c98b2-177e-41d2-9437-754b010de323",
        "meta": {
          "profile": [
            "http://hl7.eu/fhir/laboratory/StructureDefinition/Observation-resultslab-eu-lab"
          ]
        },
        "performer": [
          {
            "display": "The Central European Lab"
          }
        ],
        "category": [
          {
            "coding": [
              {
                "system": "http://terminology.hl7.org/CodeSystem/observation-category",
                "code": "laboratory"
              }
            ]
          }
        ],
        "code": {
          "coding": [
            {
              "code": "20565-8",
              "system": "http://loinc.org",
              "display": "Carbon dioxide, total [Moles/volume] in Blood"
            }
          ],
          "text": "Carbon dioxide, total [Moles/volume] in Blood"
        },
        "valueQuantity": {
          "system": "http://unitsofmeasure.org",
          "value": 22.2,
          "unit": "mmol/L",
          "code": "mmol/L"
        },
        "referenceRange": [
          {
            "low": {
              "value": 24,
              "code": "mmol/L",
              "system": "http://unitsofmeasure.org"
            }
          },
          {
            "high": {
              "value": 29,
              "code": "mmol/L",
              "system": "http://unitsofmeasure.org"
            }
          }
        ],
        "interpretation": [
          {
            "coding": [
              {
                "code": "L",
                "system": "http://terminology.hl7.org/CodeSystem/v3-ObservationInterpretation",
                "display": "Low"
              }
            ]
          }
        ],
        "text": {
          "status": "generated",
          "div": "<div xmlns=\"http://www.w3.org/1999/xhtml\"><table class=\"hl7__eu__lab__report\"><tr><th>Test</th><th>19-Jul-2025</th><th>Reference&#xA0;Range</th><th>Unit</th></tr><tr><td>Carbon dioxide, total [Moles/volume] in Blood</td><td>22.2</td><td>24 - 29</td><td>L</td><td>mmol/L</td></tr></table></div>"
        },
        "status": "final",
        "subject": {
          "reference": "urn:uuid:01469b58-e2ac-4252-ad24-90a408b24235",
          "display": "Noé Naranjo"
        },
        "effectiveDateTime": "2025-07-19T08:56:28Z"
      }
    },
    {
      "fullUrl": "urn:uuid:cfd939ae-1db6-47e0-a4d6-7dfacc7a7466",
      "resource": {
        "resourceType": "Observation",
        "id": "cfd939ae-1db6-47e0-a4d6-7dfacc7a7466",
        "meta": {
          "profile": [
            "http://hl7.eu/fhir/laboratory/StructureDefinition/Observation-resultslab-eu-lab"
          ]
        },
        "performer": [
          {
            "display": "The Central European Lab"
          }
        ],
        "category": [
          {
            "coding": [
              {
                "system": "http://terminology.hl7.org/CodeSystem/observation-category",
                "code": "laboratory"
              }
            ]
          }
        ],
        "code": {
          "coding": [
            {
              "code": "2093-3",
              "system": "http://loinc.org",
              "display": "Cholesterol [Mass/volume] in Serum or Plasma"
            }
          ],
          "text": "Cholesterol [Mass/volume] in Serum or Plasma"
        },
        "valueQuantity": {
          "system": "http://unitsofmeasure.org",
          "value": 162.6,
          "unit": "mg/dL",
          "code": "mg/dL"
        },
        "referenceRange": [
          {
            "low": {
              "value": 125,
              "code": "mg/dL",
              "system": "http://unitsofmeasure.org"
            }
          },
          {
            "high": {
              "value": 239,
              "code": "mg/dL",
              "system": "http://unitsofmeasure.org"
            }
          }
        ],
        "text": {
          "status": "generated",
          "div": "<div xmlns=\"http://www.w3.org/1999/xhtml\"><table class=\"hl7__eu__lab__report\"><tr><th>Test</th><th>19-Jul-2025</th><th>Reference&#xA0;Range</th><th>Unit</th></tr><tr><td>Cholesterol [Mass/volume] in Serum or Plasma</td><td>162.6</td><td>125 - 239</td><td></td><td>mg/dL</td></tr></table></div>"
        },
        "status": "final",
        "subject": {
          "reference": "urn:uuid:01469b58-e2ac-4252-ad24-90a408b24235",
          "display": "Noé Naranjo"
        },
        "effectiveDateTime": "2025-07-19T08:56:28Z"
      }
    },
    {
      "fullUrl": "urn:uuid:58800343-01fd-43a3-9b4a-847e219db009",
      "resource": {
        "resourceType": "Observation",
        "id": "58800343-01fd-43a3-9b4a-847e219db009",
        "meta": {
          "profile": [
            "http://hl7.eu/fhir/laboratory/StructureDefinition/Observation-resultslab-eu-lab"
          ]
        },
        "performer": [
          {
            "display": "The Central European Lab"
          }
        ],
        "category": [
          {
            "coding": [
              {
                "system": "http://terminology.hl7.org/CodeSystem/observation-category",
                "code": "laboratory"
              }
            ]
          }
        ],
        "code": {
          "coding": [
            {
              "code": "2571-8",
              "system": "http://loinc.org",
              "display": "Triglyceride [Mass/volume] in Serum or Plasma"
            }
          ],
          "text": "Triglyceride [Mass/volume] in Serum or Plasma"
        },
        "valueQuantity": {
          "system": "http://unitsofmeasure.org",
          "value": 145.6,
          "unit": "mg/dL",
          "code": "mg/dL"
        },
        "referenceRange": [
          {
            "low": {
              "value": 10,
              "code": "mg/dL",
              "system": "http://unitsofmeasure.org"
            }
          },
          {
            "high": {
              "value": 200,
              "code": "mg/dL",
              "system": "http://unitsofmeasure.org"
            }
          }
        ],
        "text": {
          "status": "generated",
          "div": "<div xmlns=\"http://www.w3.org/1999/xhtml\"><table class=\"hl7__eu__lab__report\"><tr><th>Test</th><th>19-Jul-2025</th><th>Reference&#xA0;Range</th><th>Unit</th></tr><tr><td>Triglyceride [Mass/volume] in Serum or Plasma</td><td>145.6</td><td>10 - 200</td><td></td><td>mg/dL</td></tr></table></div>"
        },
        "status": "final",
        "subject": {
          "reference": "urn:uuid:01469b58-e2ac-4252-ad24-90a408b24235",
          "display": "Noé Naranjo"
        },
        "effectiveDateTime": "2025-07-19T08:56:28Z"
      }
    },
    {
      "fullUrl": "urn:uuid:46995d6f-78c3-4240-ae29-286b80b28fa1",
      "resource": {
        "resourceType": "Observation",
        "id": "46995d6f-78c3-4240-ae29-286b80b28fa1",
        "meta": {
          "profile": [
            "http://hl7.eu/fhir/laboratory/StructureDefinition/Observation-resultslab-eu-lab"
          ]
        },
        "performer": [
          {
            "display": "The Central European Lab"
          }
        ],
        "category": [
          {
            "coding": [
              {
                "system": "http://terminology.hl7.org/CodeSystem/observation-category",
                "code": "laboratory"
              }
            ]
          }
        ],
        "code": {
          "coding": [
            {
              "code": "18262-6",
              "system": "http://loinc.org",
              "display": "Cholesterol in LDL [Mass/volume] in Serum or Plasma by Direct assay"
            }
          ],
          "text": "Cholesterol in LDL [Mass/volume] in Serum or Plasma by Direct assay"
        },
        "valueQuantity": {
          "system": "http://unitsofmeasure.org",
          "value": 73.4,
          "unit": "mg/dL",
          "code": "mg/dL"
        },
        "referenceRange": [
          {
            "low": {
              "value": 0,
              "code": "mg/dL",
              "system": "http://unitsofmeasure.org"
            }
          },
          {
            "high": {
              "value": 130,
              "code": "mg/dL",
              "system": "http://unitsofmeasure.org"
            }
          }
        ],
        "text": {
          "status": "generated",
          "div": "<div xmlns=\"http://www.w3.org/1999/xhtml\"><table class=\"hl7__eu__lab__report\"><tr><th>Test</th><th>19-Jul-2025</th><th>Reference&#xA0;Range</th><th>Unit</th></tr><tr><td>Cholesterol in LDL [Mass/volume] in Serum or Plasma by Direct assay</td><td>73.4</td><td>0 - 130</td><td></td><td>mg/dL</td></tr></table></div>"
        },
        "status": "final",
        "subject": {
          "reference": "urn:uuid:01469b58-e2ac-4252-ad24-90a408b24235",
          "display": "Noé Naranjo"
        },
        "effectiveDateTime": "2025-07-19T08:56:28Z"
      }
    },
    {
      "fullUrl": "urn:uuid:3de8d969-c574-4a1f-bc06-90e055978ef9",
      "resource": {
        "resourceType": "Observation",
        "id": "3de8d969-c574-4a1f-bc06-90e055978ef9",
        "meta": {
          "profile": [
            "http://hl7.eu/fhir/laboratory/StructureDefinition/Observation-resultslab-eu-lab"
          ]
        },
        "performer": [
          {
            "display": "The Central European Lab"
          }
        ],
        "category": [
          {
            "coding": [
              {
                "system": "http://terminology.hl7.org/CodeSystem/observation-category",
                "code": "laboratory"
              }
            ]
          }
        ],
        "code": {
          "coding": [
            {
              "code": "2085-9",
              "system": "http://loinc.org",
              "display": "Cholesterol in HDL [Mass/volume] in Serum or Plasma"
            }
          ],
          "text": "Cholesterol in HDL [Mass/volume] in Serum or Plasma"
        },
        "valueQuantity": {
          "system": "http://unitsofmeasure.org",
          "value": 60.1,
          "unit": "mg/dL",
          "code": "mg/dL"
        },
        "referenceRange": [
          {
            "low": {
              "value": 40,
              "code": "mg/dL",
              "system": "http://unitsofmeasure.org"
            }
          },
          {
            "high": {
              "value": 100,
              "code": "mg/dL",
              "system": "http://unitsofmeasure.org"
            }
          }
        ],
        "text": {
          "status": "generated",
          "div": "<div xmlns=\"http://www.w3.org/1999/xhtml\"><table class=\"hl7__eu__lab__report\"><tr><th>Test</th><th>19-Jul-2025</th><th>Reference&#xA0;Range</th><th>Unit</th></tr><tr><td>Cholesterol in HDL [Mass/volume] in Serum or Plasma</td><td>60.1</td><td>40 - 100</td><td></td><td>mg/dL</td></tr></table></div>"
        },
        "status": "final",
        "subject": {
          "reference": "urn:uuid:01469b58-e2ac-4252-ad24-90a408b24235",
          "display": "Noé Naranjo"
        },
        "effectiveDateTime": "2025-07-19T08:56:28Z"
      }
    },
    {
      "fullUrl": "urn:uuid:93e37ec4-2faa-4fac-b46e-f8f133ecfec5",
      "resource": {
        "resourceType": "Observation",
        "id": "93e37ec4-2faa-4fac-b46e-f8f133ecfec5",
        "meta": {
          "profile": [
            "http://hl7.eu/fhir/laboratory/StructureDefinition/Observation-resultslab-eu-lab"
          ]
        },
        "performer": [
          {
            "display": "The Central European Lab"
          }
        ],
        "category": [
          {
            "coding": [
              {
                "system": "http://terminology.hl7.org/CodeSystem/observation-category",
                "code": "laboratory"
              }
            ]
          }
        ],
        "code": {
          "coding": [
            {
              "code": "14959-1",
              "system": "http://loinc.org",
              "display": "Microalbumin/Creatinine [Mass Ratio] in Urine"
            }
          ],
          "text": "Microalbumin/Creatinine [Mass Ratio] in Urine"
        },
        "valueQuantity": {
          "system": "http://unitsofmeasure.org",
          "value": 28.9,
          "unit": "mg/g",
          "code": "mg/g"
        },
        "referenceRange": [
          {
            "low": {
              "value": 3,
              "code": "mg/g",
              "system": "http://unitsofmeasure.org"
            }
          },
          {
            "high": {
              "value": 30,
              "code": "mg/g",
              "system": "http://unitsofmeasure.org"
            }
          }
        ],
        "text": {
          "status": "generated",
          "div": "<div xmlns=\"http://www.w3.org/1999/xhtml\"><table class=\"hl7__eu__lab__report\"><tr><th>Test</th><th>19-Jul-2025</th><th>Reference&#xA0;Range</th><th>Unit</th></tr><tr><td>Microalbumin/Creatinine [Mass Ratio] in Urine</td><td>28.9</td><td>3 - 30</td><td></td><td>mg/g</td></tr></table></div>"
        },
        "status": "final",
        "subject": {
          "reference": "urn:uuid:01469b58-e2ac-4252-ad24-90a408b24235",
          "display": "Noé Naranjo"
        },
        "effectiveDateTime": "2025-07-19T08:56:28Z"
      }
    },
    {
      "fullUrl": "urn:uuid:ae0decbb-6b30-4809-89ce-336885b2b059",
      "resource": {
        "resourceType": "DeviceUseStatement",
        "id": "ae0decbb-6b30-4809-89ce-336885b2b059",
        "meta": {
          "profile": [
            "http://hl7.eu/fhir/eps/StructureDefinition/deviceUseStatement-eu-eps"
          ]
        },
        "timingPeriod": {
          "start": "1962-04-28"
        },
        "text": {
          "status": "generated",
          "div": "<div xmlns=\"http://www.w3.org/1999/xhtml\"><table class=\"hl7__ips\"><tr><td>Blood glucose meter (physical object)</td><td><span class=\"nb\">28-Apr-1962</span></td></tr></table></div>"
        },
        "status": "active",
        "device": {
          "reference": "urn:uuid:473d6d3c-e51e-4ffe-8006-741e11289d09",
          "display": "Blood glucose meter (physical object)"
        },
        "subject": {
          "reference": "urn:uuid:01469b58-e2ac-4252-ad24-90a408b24235",
          "display": "Noé Naranjo"
        }
      }
    },
    {
      "fullUrl": "urn:uuid:473d6d3c-e51e-4ffe-8006-741e11289d09",
      "resource": {
        "resourceType": "Device",
        "id": "473d6d3c-e51e-4ffe-8006-741e11289d09",
        "meta": {
          "profile": [
            "http://hl7.eu/fhir/eps/StructureDefinition/device-eu-eps"
          ]
        },
        "udiCarrier": [
          {
            "id": "(01)75951594740572(11)620407(17)870422(10)2633678824742(21)828601641722"
          }
        ],
        "status": "active",
        "patient": {
          "reference": "urn:uuid:01469b58-e2ac-4252-ad24-90a408b24235",
          "display": "Noé Naranjo"
        },
        "type": {
          "coding": [
            {
              "code": "337414009",
              "system": "http://snomed.info/sct",
              "display": "Blood glucose meter (physical object)"
            }
          ]
        }
      }
    },
    {
      "fullUrl": "urn:uuid:f5ed56a2-0a1c-4cef-8f95-defd217bb0e0",
      "resource": {
        "resourceType": "Device",
        "id": "f5ed56a2-0a1c-4cef-8f95-defd217bb0e0",
        "deviceName": [
          {
            "name": "SYNDERAI Synthetic Generator",
            "type": "manufacturer-name"
          }
        ],
        "version": [
          {
            "value": "5.0"
          }
        ],
        "text": {
          "status": "generated",
          "div": "<div xmlns=\"http://www.w3.org/1999/xhtml\">SYNDERAI Synthetic Generator v5.0</div>"
        },
        "status": "active",
        "distinctIdentifier": "synderai-generator-50",
        "manufacturer": "SYNDERAI Project"
      }
    },
    {
      "fullUrl": "urn:uuid:9b8f4f46-bb75-4152-9cf7-11721527da12",
      "resource": {
        "resourceType": "Provenance",
        "id": "9b8f4f46-bb75-4152-9cf7-11721527da12",
        "target": [
          {
            "reference": "Patient/01469b58-e2ac-4252-ad24-90a408b24235"
          },
          {
            "reference": "Bundle/da30bcf0-8779-4261-a0fa-1545bb664231"
          },
          {
            "reference": "Composition/69e79d48-eee5-426f-8d3d-1f081c36e7fc"
          },
          {
            "reference": "PractitionerRole/233ec99e-1db1-48e1-9bc1-7595ed43586d"
          },
          {
            "reference": "Organization/e34fb1f1-c2b2-4bd1-ace7-218b74e65de7"
          },
          {
            "reference": "Practitioner/425fd615-c8a3-44dc-afcd-cde3843652c6"
          }
        ],
        "activity": {
          "text": "Synthetic Example Data Generation"
        },
        "policy": [
          "https://synderai.net/synderai-synthetic-data-policy"
        ],
        "agent": [
          {
            "type": {
              "text": "author"
            },
            "who": {
              "reference": "Device/f5ed56a2-0a1c-4cef-8f95-defd217bb0e0"
            }
          }
        ],
        "reason": [
          {
            "text": "Interoperability Testing and Training (non-clinical use)"
          }
        ],
        "text": {
          "status": "generated",
          "div": "<div xmlns=\"http://www.w3.org/1999/xhtml\">Provenance for SYNDERAI Synthetic Example Data Resource</div>"
        },
        "recorded": "2025-07-19T08:56:28Z"
      }
    }
  ],
  "type": "document",
  "timestamp": "2025-07-19T08:56:28Z"
}
