{
  "resourceType": "Bundle",
  "id": "dd5a8851-2232-47d4-970b-d1583e130979",
  "meta": {
    "profile": [
      "http://hl7.eu/fhir/eps/StructureDefinition/bundle-eu-eps"
    ]
  },
  "identifier": {
    "assigner": {
      "display": "HL7 Europe"
    },
    "system": "urn:oid:2.16.840.1.113883.2.51.999",
    "value": "3dc507cf-e436-4a82-b145-7765b9c562f6"
  },
  "entry": [
    {
      "fullUrl": "urn:uuid:55a7d00a-bbdf-48d3-bf25-ce56f055ec04",
      "resource": {
        "resourceType": "Composition",
        "id": "55a7d00a-bbdf-48d3-bf25-ce56f055ec04",
        "meta": {
          "security": [
            {
              "system": "http://terminology.hl7.org/CodeSystem/v3-ActReason",
              "code": "HTEST"
            },
            {
              "system": "http://terminology.hl7.org/CodeSystem/v3-ActReason",
              "code": "TRAIN"
            }
          ],
          "tag": [
            {
              "system": "https://synderai.net/fhir/CodeSystem/tags",
              "code": "synthetic",
              "display": "SYNDERAI Synthetic data"
            }
          ],
          "profile": [
            "http://hl7.eu/fhir/eps/StructureDefinition/composition-eu-eps"
          ]
        },
        "identifier": {
          "assigner": {
            "display": "HL7 Europe"
          },
          "system": "urn:oid:2.16.840.1.113883.2.51.999",
          "value": "41e185a2-f43e-48cf-9554-66d2d37d2b47"
        },
        "type": {
          "coding": [
            {
              "code": "60591-5",
              "system": "http://loinc.org",
              "display": "Patient summary Document"
            }
          ],
          "text": "Patient summary Document"
        },
        "author": [
          {
            "reference": "urn:uuid:3022f7e8-4a20-4d2a-a59c-c162fa842535"
          }
        ],
        "section": [
          {
            "text": {
              "status": "generated",
              "div": "<div xmlns=\"http://www.w3.org/1999/xhtml\"><table class=\"hl7__ips\"><tr><th>Condition</th><th>Onset Date</th><th>Status</th></tr><tr><td>Essential hypertension</td><td><span class=\"nb\">26-Jan-2021</span></td><td>active</td></tr><tr><td>Hyperglycemia</td><td><span class=\"nb\">21-Jan-2020</span></td><td>active</td></tr><tr><td>Anemia</td><td><span class=\"nb\">21-Jan-2020</span></td><td>active</td></tr><tr><td>Hypertriglyceridemia</td><td><span class=\"nb\">21-Jan-2020</span></td><td>active</td></tr><tr><td>Type 2 diabetes mellitus</td><td><span class=\"nb\">14-Jan-2020</span></td><td>active</td></tr><tr><td>Metabolic syndrome X</td><td><span class=\"nb\">14-Jan-2020</span></td><td>active</td></tr></table></div>"
            },
            "entry": [
              {
                "reference": "urn:uuid:e4da423f-1fff-4761-9b41-55cab2749c96"
              }
            ],
            "code": {
              "coding": [
                {
                  "system": "http://loinc.org",
                  "code": "11450-4",
                  "display": "Problem list - Reported"
                }
              ]
            },
            "title": "Problem list"
          },
          {
            "text": {
              "status": "generated",
              "div": "<div xmlns=\"http://www.w3.org/1999/xhtml\"><table class=\"hl7__ips\"><tr><td>No known medications</td></tr></table></div>"
            },
            "entry": [
              {
                "reference": "urn:uuid:0b7b20a9-6db5-4a4a-9deb-22b4eedf98eb"
              }
            ],
            "code": {
              "coding": [
                {
                  "system": "http://loinc.org",
                  "code": "10160-0",
                  "display": "History of Medication use Narrative"
                }
              ]
            },
            "title": "Medication list"
          },
          {
            "text": {
              "status": "generated",
              "div": "<div xmlns=\"http://www.w3.org/1999/xhtml\"><table class=\"hl7__ips\"><tr><th>Vaccine</th><th>Date</th></tr><tr><td>Influenza virus antigen only vaccine product</td><td><span class=\"nb\">08-Apr-2025</span></td></tr><tr><td>SARS-CoV-2 mRNA vaccine</td><td><span class=\"nb\">13-Apr-2021</span></td></tr><tr><td>Hepatitis A virus antigen only vaccine product</td><td><span class=\"nb\">14-Jan-2020</span></td></tr><tr><td>Clostridium tetani toxoid antigen adsorbed only vaccine product</td><td><span class=\"nb\">14-Jan-2020</span></td></tr></table></div>"
            },
            "entry": [
              {
                "reference": "urn:uuid:db153174-a0ad-417d-8755-68d59a56f053"
              }
            ],
            "code": {
              "coding": [
                {
                  "system": "http://loinc.org",
                  "code": "11369-6",
                  "display": "History of Immunization note"
                }
              ]
            },
            "title": "Immunizations list"
          },
          {
            "text": {
              "status": "generated",
              "div": "<div xmlns=\"http://www.w3.org/1999/xhtml\"><table class=\"hl7__ips\"><tr><th>Procedure</th><th>Date</th><th>Reason</th></tr><tr><td>Suture open wound</td><td><span class=\"nb\">01-Nov-2021</span></td><td>Laceration of foot</td></tr></table></div>"
            },
            "entry": [
              {
                "reference": "urn:uuid:def68663-af52-472b-8cad-4a64ed04c0d9"
              }
            ],
            "code": {
              "coding": [
                {
                  "system": "http://loinc.org",
                  "code": "47519-4",
                  "display": "History of Procedures Document"
                }
              ]
            },
            "title": "Procedure History list"
          },
          {
            "text": {
              "status": "generated",
              "div": "<div xmlns=\"http://www.w3.org/1999/xhtml\"><table class=\"hl7__ips\"><tr><th>Allergy/Intolerance</th><th>Onset Date</th><th>Status</th><th>Type</th><th>Reaction</th></tr><tr><td></td><td>?</td><td>active</td><td>?</td><td></td></tr></table></div>"
            },
            "entry": [
              {
                "reference": "urn:uuid:1d5e1fed-f3fe-4fcb-83b6-a8df5c7fa843"
              }
            ],
            "code": {
              "coding": [
                {
                  "system": "http://loinc.org",
                  "code": "48765-2",
                  "display": "Allergies and adverse reactions Document"
                }
              ]
            },
            "title": "Allergies and Intolerances"
          },
          {
            "text": {
              "status": "generated",
              "div": "<div xmlns=\"http://www.w3.org/1999/xhtml\"><table class=\"hl7__ips\"><tr><th>Active Planned Care / Goals</th><th>Start Date</th><th>Reason</th></tr><tr><td>Respiratory therapy</td><td><span class=\"nb\">15-Apr-2025</span></td><td>-</td></tr><tr><td>Lifestyle education regarding hypertension</td><td><span class=\"nb\">26-Jan-2021</span></td><td>Essential hypertension (disorder)</td></tr><tr><td><ul><li>Maintain blood pressure below 130/80 mmHg through lifestyle modification</li><li>Reduce body weight to target BMI less than 25 kg/m2</li><li>Limit daily sodium intake to less than 2.3 grams</li><li>Engage in at least 150 minutes of moderate-intensity aerobic activity per week</li></ul></td><td></td><td></td></tr><tr><td>Diabetes self management plan</td><td><span class=\"nb\">14-Jan-2020</span></td><td>Diabetes mellitus type 2 (disorder)</td></tr><tr><td><ul><li>Patient will demonstrate understanding and application of diabetes self-management, including blood glucose monitoring, medication adherence, diet, and physical activity.</li><li>Achieve and maintain HbA1c at individualized target level.</li><li>Maintain fasting blood glucose within recommended range.</li><li>Patient will check and record blood glucose as recommended by care team.</li></ul></td><td></td><td></td></tr></table></div>"
            },
            "title": "Care Plan",
            "code": {
              "coding": [
                {
                  "code": "18776-5",
                  "system": "http://loinc.org",
                  "display": "Plan of care note"
                }
              ]
            }
          },
          {
            "text": {
              "status": "generated",
              "div": "<div xmlns=\"http://www.w3.org/1999/xhtml\"><table class=\"hl7__ips\"><tr><th>Vital Signs</th><th>2025-04-08</th><th>2025-02-18</th></tr><tr><td>Body Height</td><td>176.5 cm</td><td>176.5 cm</td></tr><tr><td>Pain severity - 0-10 verbal numeric rating [Score] - Reported</td><td>3 {score}</td><td>1 {score}</td></tr><tr><td>Body Weight</td><td>92.9 kg</td><td>92.7 kg</td></tr><tr><td>Body mass index (BMI) [Ratio]</td><td>29.8 kg/m2</td><td>29.8 kg/m2</td></tr><tr><td>Diastolic Blood Pressure</td><td>87 mm[Hg]</td><td>90 mm[Hg]</td></tr><tr><td>Systolic Blood Pressure</td><td>141 mm[Hg]</td><td>140 mm[Hg]</td></tr><tr><td>Heart rate</td><td>67 /min</td><td>98 /min</td></tr><tr><td>Respiratory rate</td><td>14 /min</td><td>15 /min</td></tr></table></div>"
            },
            "entry": [
              {
                "reference": "urn:uuid:6b201569-32c7-463b-ac7d-1915a369e0f5"
              }
            ],
            "code": {
              "coding": [
                {
                  "system": "http://loinc.org",
                  "code": "8716-3",
                  "display": "Vital signs note"
                }
              ]
            },
            "title": "Vital Signs"
          },
          {
            "text": {
              "status": "generated",
              "div": "<div xmlns=\"http://www.w3.org/1999/xhtml\"><table class=\"hl7__ips\"><table class=\"hl7__ips\"><thead><tr><th>Recent Lab Observations</th><th>08-APR-2025</th><th>Reference&#xA0;Range</th><th>Unit</th></tr></thead><tbody><tr><td>Hemoglobin A1c/Hemoglobin.total in Blood</td><td>6.0</td><td>4.5 - 6.4</td><td>%</td></tr><tr><td>Glucose [Mass/volume] in Blood</td><td>93.5</td><td>70 - 140</td><td>mg/dL</td></tr><tr><td>Urea nitrogen [Mass/volume] in Blood</td><td>16.0</td><td>7 - 20</td><td>mg/dL</td></tr><tr><td>Creatinine [Mass/volume] in Blood</td><td>1.2</td><td>0.9 - 1.3</td><td>mg/dL</td></tr><tr><td>Calcium [Mass/volume] in Blood</td><td>9.4</td><td>8.5 - 10.5</td><td>mg/dL</td></tr><tr><td>Sodium [Moles/volume] in Blood</td><td>143.8</td><td>135 - 145</td><td>mmol/L</td></tr><tr><td>Potassium [Moles/volume] in Blood</td><td><strong>5.2 H</strong></td><td>3.5 - 5</td><td>mmol/L</td></tr><tr><td>Chloride [Moles/volume] in Blood</td><td>106.5</td><td>98 - 107</td><td>mmol/L</td></tr><tr><td>Carbon dioxide, total [Moles/volume] in Blood</td><td>23.3</td><td>22 - 32</td><td>mmol/L</td></tr><tr><td>Cholesterol [Mass/volume] in Serum or Plasma</td><td><strong>124.8 L</strong></td><td>125 - 200</td><td>mg/dL</td></tr><tr><td>Triglyceride [Mass/volume] in Serum or Plasma</td><td>114.2</td><td>40 - 150</td><td>mg/dL</td></tr><tr><td>Cholesterol in LDL [Mass/volume] in Serum or Plasma by Direct assay</td><td>70.5</td><td>0 - 130</td><td>mg/dL</td></tr><tr><td>Cholesterol in HDL [Mass/volume] in Serum or Plasma</td><td><strong>31.5 L</strong></td><td>40 - 60</td><td>mg/dL</td></tr><tr><td>Microalbumin/Creatinine [Mass Ratio] in Urine</td><td>15.6</td><td>0 - 30</td><td>mg/g</td></tr></tbody></table></table></div>"
            },
            "title": "Relevant diagnostic tests/laboratory data",
            "code": {
              "coding": [
                {
                  "code": "30954-2",
                  "system": "http://loinc.org",
                  "display": "Relevant diagnostic tests/laboratory data note"
                }
              ]
            }
          },
          {
            "text": {
              "status": "generated",
              "div": "<div xmlns=\"http://www.w3.org/1999/xhtml\"><table class=\"hl7__ips\"><tr><th>Device</th><th>Date (since)</th></tr><tr><td>Blood glucose meter (physical object)</td><td><span class=\"nb\">14-Jan-2020</span></td></tr></table></div>"
            },
            "entry": [
              {
                "reference": "urn:uuid:523e4962-3340-49a0-82e0-a3716856830d"
              }
            ],
            "code": {
              "coding": [
                {
                  "system": "http://loinc.org",
                  "code": "46264-8",
                  "display": "History of medical device use"
                }
              ]
            },
            "title": "Device Use"
          }
        ],
        "title": "European Patient Summary",
        "status": "final",
        "subject": {
          "reference": "urn:uuid:83f497ae-4229-473a-8a03-b5c9eb803d4c",
          "display": "Ruben Koch II"
        },
        "custodian": {
          "reference": "urn:uuid:cf5b19f3-0159-4a09-b5c2-d3ee255218fd"
        },
        "date": "2025-04-08",
        "confidentiality": "N"
      }
    },
    {
      "fullUrl": "urn:uuid:83f497ae-4229-473a-8a03-b5c9eb803d4c",
      "resource": {
        "resourceType": "Patient",
        "id": "83f497ae-4229-473a-8a03-b5c9eb803d4c",
        "meta": {
          "security": [
            {
              "system": "http://terminology.hl7.org/CodeSystem/v3-ActReason",
              "code": "HTEST"
            },
            {
              "system": "http://terminology.hl7.org/CodeSystem/v3-ActReason",
              "code": "TRAIN"
            }
          ],
          "tag": [
            {
              "system": "https://synderai.net/fhir/CodeSystem/tags",
              "code": "synthetic",
              "display": "SYNDERAI Synthetic data"
            }
          ],
          "profile": [
            "http://hl7.eu/fhir/eps/StructureDefinition/patient-eu-eps"
          ]
        },
        "identifier": [
          {
            "type": {
              "coding": [
                {
                  "code": "PT",
                  "system": "http://terminology.hl7.org/CodeSystem/v2-0203"
                }
              ]
            },
            "system": "http://ec.europa.eu/identifier/eci",
            "value": "2300-351474-4"
          },
          {
            "type": {
              "coding": [
                {
                  "code": "MR",
                  "system": "http://terminology.hl7.org/CodeSystem/v2-0203"
                }
              ]
            },
            "system": "http://local.setting.eu/identifier",
            "value": "ae2c7b5e-144a-3583-e6bd-98a459c6a9e5"
          }
        ],
        "name": [
          {
            "given": [
              "Ruben"
            ],
            "family": "Koch II",
            "text": "Ruben Koch II"
          }
        ],
        "address": [
          {
            "line": [
              "Lorchring 2-8"
            ],
            "use": "home",
            "type": "physical",
            "postalCode": "17166",
            "city": "Teterow",
            "country": "Germany"
          }
        ],
        "telecom": [
          {
            "system": "phone",
            "value": "+49(0) 029669861"
          }
        ],
        "extension": [
          {
            "url": "http://hl7.org/fhir/StructureDefinition/patient-nationality",
            "valueCodeableConcept": {
              "coding": [
                {
                  "code": "DE",
                  "system": "http://hl7.org/fhir/ValueSet/country"
                }
              ]
            }
          }
        ],
        "text": {
          "status": "generated",
          "div": "<div xmlns=\"http://www.w3.org/1999/xhtml\"><table class=\"hl7__ips\"><tr><td>Ruben Koch II</td><td>male</td><td>19-May-1981</td></tr></table></div>"
        },
        "gender": "male",
        "birthDate": "1981-05-19"
      }
    },
    {
      "fullUrl": "urn:uuid:3022f7e8-4a20-4d2a-a59c-c162fa842535",
      "resource": {
        "resourceType": "PractitionerRole",
        "id": "3022f7e8-4a20-4d2a-a59c-c162fa842535",
        "meta": {
          "profile": [
            "http://hl7.eu/fhir/base/StructureDefinition/practitionerRole-eu"
          ]
        },
        "text": {
          "status": "generated",
          "div": "<div xmlns=\"http://www.w3.org/1999/xhtml\"><table class=\"hl7__ips\">Provider Role Id 3022f7e8-4a20-4d2a-a59c-c162fa842535</table></div>"
        },
        "practitioner": {
          "reference": "urn:uuid:f6735f6e-1b0a-4f46-b2ea-6a7950a6a3de"
        },
        "organization": {
          "reference": "urn:uuid:cf5b19f3-0159-4a09-b5c2-d3ee255218fd"
        }
      }
    },
    {
      "fullUrl": "urn:uuid:cf5b19f3-0159-4a09-b5c2-d3ee255218fd",
      "resource": {
        "resourceType": "Organization",
        "id": "cf5b19f3-0159-4a09-b5c2-d3ee255218fd",
        "meta": {
          "profile": [
            "http://hl7.eu/fhir/base/StructureDefinition/organization-eu"
          ]
        },
        "identifier": [
          {
            "assigner": {
              "display": "HL7 Europe"
            },
            "system": "urn:oid:2.16.840.1.113883.2.51.999",
            "value": "caa41a14-3b4e-4fd2-9a4f-ab07c67df219"
          }
        ],
        "address": [
          {
            "line": [
              "Basedower Straße 33"
            ],
            "city": "Malchin",
            "postalCode": "17139",
            "country": "Germany"
          }
        ],
        "text": {
          "status": "generated",
          "div": "<div xmlns=\"http://www.w3.org/1999/xhtml\"><table class=\"hl7__ips\">Dietrich-Bonhoeffer-Klinikum</table></div>"
        },
        "name": "Dietrich-Bonhoeffer-Klinikum"
      }
    },
    {
      "fullUrl": "urn:uuid:f6735f6e-1b0a-4f46-b2ea-6a7950a6a3de",
      "resource": {
        "resourceType": "Practitioner",
        "id": "f6735f6e-1b0a-4f46-b2ea-6a7950a6a3de",
        "meta": {
          "profile": [
            "http://hl7.eu/fhir/base/StructureDefinition/practitioner-eu"
          ]
        },
        "name": [
          {
            "prefix": [
              "Dr."
            ],
            "given": [
              "Hel"
            ],
            "family": "Ping"
          }
        ],
        "text": {
          "status": "generated",
          "div": "<div xmlns=\"http://www.w3.org/1999/xhtml\"><table class=\"hl7__ips\">Dr. Hel Ping</table></div>"
        }
      }
    },
    {
      "fullUrl": "urn:uuid:e4da423f-1fff-4761-9b41-55cab2749c96",
      "resource": {
        "resourceType": "Condition",
        "id": "e4da423f-1fff-4761-9b41-55cab2749c96",
        "meta": {
          "profile": [
            "http://hl7.org/fhir/uv/ips/StructureDefinition/Condition-uv-ips"
          ]
        },
        "category": [
          {
            "coding": [
              {
                "code": "problem-list-item",
                "system": "http://terminology.hl7.org/CodeSystem/condition-category",
                "display": "Problem List Item"
              }
            ]
          }
        ],
        "code": {
          "coding": [
            {
              "code": "59621000",
              "system": "http://snomed.info/sct",
              "display": "Essential hypertension (disorder)"
            }
          ],
          "text": "Essential hypertension"
        },
        "text": {
          "status": "generated",
          "div": "<div xmlns=\"http://www.w3.org/1999/xhtml\"><table class=\"hl7__ips\"><tr><td>Essential hypertension</td><td><span class=\"nb\">26-Jan-2021</span></td><td>active</td></tr></table></div>"
        },
        "onsetDateTime": "2021-01-26",
        "subject": {
          "reference": "urn:uuid:83f497ae-4229-473a-8a03-b5c9eb803d4c",
          "display": "Ruben Koch II"
        },
        "asserter": {
          "reference": "urn:uuid:3022f7e8-4a20-4d2a-a59c-c162fa842535",
          "display": "Dietrich-Bonhoeffer-Klinikum"
        }
      }
    },
    {
      "fullUrl": "urn:uuid:debd0c86-77b3-4643-8b53-f7a050188418",
      "resource": {
        "resourceType": "Condition",
        "id": "debd0c86-77b3-4643-8b53-f7a050188418",
        "meta": {
          "profile": [
            "http://hl7.org/fhir/uv/ips/StructureDefinition/Condition-uv-ips"
          ]
        },
        "category": [
          {
            "coding": [
              {
                "code": "problem-list-item",
                "system": "http://terminology.hl7.org/CodeSystem/condition-category",
                "display": "Problem List Item"
              }
            ]
          }
        ],
        "code": {
          "coding": [
            {
              "code": "80394007",
              "system": "http://snomed.info/sct",
              "display": "Hyperglycemia (disorder)"
            }
          ],
          "text": "Hyperglycemia"
        },
        "text": {
          "status": "generated",
          "div": "<div xmlns=\"http://www.w3.org/1999/xhtml\"><table class=\"hl7__ips\"><tr><td>Hyperglycemia</td><td><span class=\"nb\">21-Jan-2020</span></td><td>active</td></tr></table></div>"
        },
        "onsetDateTime": "2020-01-21",
        "subject": {
          "reference": "urn:uuid:83f497ae-4229-473a-8a03-b5c9eb803d4c",
          "display": "Ruben Koch II"
        },
        "asserter": {
          "reference": "urn:uuid:3022f7e8-4a20-4d2a-a59c-c162fa842535",
          "display": "Dietrich-Bonhoeffer-Klinikum"
        }
      }
    },
    {
      "fullUrl": "urn:uuid:b14b985f-8eab-4b68-a140-8352127ea291",
      "resource": {
        "resourceType": "Condition",
        "id": "b14b985f-8eab-4b68-a140-8352127ea291",
        "meta": {
          "profile": [
            "http://hl7.org/fhir/uv/ips/StructureDefinition/Condition-uv-ips"
          ]
        },
        "category": [
          {
            "coding": [
              {
                "code": "problem-list-item",
                "system": "http://terminology.hl7.org/CodeSystem/condition-category",
                "display": "Problem List Item"
              }
            ]
          }
        ],
        "code": {
          "coding": [
            {
              "code": "271737000",
              "system": "http://snomed.info/sct",
              "display": "Anemia (disorder)"
            }
          ],
          "text": "Anemia"
        },
        "text": {
          "status": "generated",
          "div": "<div xmlns=\"http://www.w3.org/1999/xhtml\"><table class=\"hl7__ips\"><tr><td>Anemia</td><td><span class=\"nb\">21-Jan-2020</span></td><td>active</td></tr></table></div>"
        },
        "onsetDateTime": "2020-01-21",
        "subject": {
          "reference": "urn:uuid:83f497ae-4229-473a-8a03-b5c9eb803d4c",
          "display": "Ruben Koch II"
        },
        "asserter": {
          "reference": "urn:uuid:3022f7e8-4a20-4d2a-a59c-c162fa842535",
          "display": "Dietrich-Bonhoeffer-Klinikum"
        }
      }
    },
    {
      "fullUrl": "urn:uuid:4391f95e-3585-4a62-9199-69a0114d6ebf",
      "resource": {
        "resourceType": "Condition",
        "id": "4391f95e-3585-4a62-9199-69a0114d6ebf",
        "meta": {
          "profile": [
            "http://hl7.org/fhir/uv/ips/StructureDefinition/Condition-uv-ips"
          ]
        },
        "category": [
          {
            "coding": [
              {
                "code": "problem-list-item",
                "system": "http://terminology.hl7.org/CodeSystem/condition-category",
                "display": "Problem List Item"
              }
            ]
          }
        ],
        "code": {
          "coding": [
            {
              "code": "302870006",
              "system": "http://snomed.info/sct",
              "display": "Hypertriglyceridemia (disorder)"
            }
          ],
          "text": "Hypertriglyceridemia"
        },
        "text": {
          "status": "generated",
          "div": "<div xmlns=\"http://www.w3.org/1999/xhtml\"><table class=\"hl7__ips\"><tr><td>Hypertriglyceridemia</td><td><span class=\"nb\">21-Jan-2020</span></td><td>active</td></tr></table></div>"
        },
        "onsetDateTime": "2020-01-21",
        "subject": {
          "reference": "urn:uuid:83f497ae-4229-473a-8a03-b5c9eb803d4c",
          "display": "Ruben Koch II"
        },
        "asserter": {
          "reference": "urn:uuid:3022f7e8-4a20-4d2a-a59c-c162fa842535",
          "display": "Dietrich-Bonhoeffer-Klinikum"
        }
      }
    },
    {
      "fullUrl": "urn:uuid:73926e06-410e-4f97-9ed1-11f783a0d654",
      "resource": {
        "resourceType": "Condition",
        "id": "73926e06-410e-4f97-9ed1-11f783a0d654",
        "meta": {
          "profile": [
            "http://hl7.org/fhir/uv/ips/StructureDefinition/Condition-uv-ips"
          ]
        },
        "category": [
          {
            "coding": [
              {
                "code": "problem-list-item",
                "system": "http://terminology.hl7.org/CodeSystem/condition-category",
                "display": "Problem List Item"
              }
            ]
          }
        ],
        "code": {
          "coding": [
            {
              "code": "44054006",
              "system": "http://snomed.info/sct",
              "display": "Diabetes mellitus type 2 (disorder)"
            }
          ],
          "text": "Type 2 diabetes mellitus"
        },
        "text": {
          "status": "generated",
          "div": "<div xmlns=\"http://www.w3.org/1999/xhtml\"><table class=\"hl7__ips\"><tr><td>Type 2 diabetes mellitus</td><td><span class=\"nb\">14-Jan-2020</span></td><td>active</td></tr></table></div>"
        },
        "onsetDateTime": "2020-01-14",
        "subject": {
          "reference": "urn:uuid:83f497ae-4229-473a-8a03-b5c9eb803d4c",
          "display": "Ruben Koch II"
        },
        "asserter": {
          "reference": "urn:uuid:3022f7e8-4a20-4d2a-a59c-c162fa842535",
          "display": "Dietrich-Bonhoeffer-Klinikum"
        }
      }
    },
    {
      "fullUrl": "urn:uuid:5fda707a-1657-46f4-8fe0-68078857d997",
      "resource": {
        "resourceType": "Condition",
        "id": "5fda707a-1657-46f4-8fe0-68078857d997",
        "meta": {
          "profile": [
            "http://hl7.org/fhir/uv/ips/StructureDefinition/Condition-uv-ips"
          ]
        },
        "category": [
          {
            "coding": [
              {
                "code": "problem-list-item",
                "system": "http://terminology.hl7.org/CodeSystem/condition-category",
                "display": "Problem List Item"
              }
            ]
          }
        ],
        "code": {
          "coding": [
            {
              "code": "237602007",
              "system": "http://snomed.info/sct",
              "display": "Metabolic syndrome X (disorder)"
            }
          ],
          "text": "Metabolic syndrome X"
        },
        "text": {
          "status": "generated",
          "div": "<div xmlns=\"http://www.w3.org/1999/xhtml\"><table class=\"hl7__ips\"><tr><td>Metabolic syndrome X</td><td><span class=\"nb\">14-Jan-2020</span></td><td>active</td></tr></table></div>"
        },
        "onsetDateTime": "2020-01-14",
        "subject": {
          "reference": "urn:uuid:83f497ae-4229-473a-8a03-b5c9eb803d4c",
          "display": "Ruben Koch II"
        },
        "asserter": {
          "reference": "urn:uuid:3022f7e8-4a20-4d2a-a59c-c162fa842535",
          "display": "Dietrich-Bonhoeffer-Klinikum"
        }
      }
    },
    {
      "fullUrl": "urn:uuid:f51217ee-fc3b-4c70-b740-4b90ff14bb9d",
      "resource": {
        "resourceType": "Condition",
        "id": "f51217ee-fc3b-4c70-b740-4b90ff14bb9d",
        "meta": {
          "profile": [
            "http://hl7.org/fhir/uv/ips/StructureDefinition/Condition-uv-ips"
          ]
        },
        "category": [
          {
            "coding": [
              {
                "code": "problem-list-item",
                "system": "http://terminology.hl7.org/CodeSystem/condition-category",
                "display": "Problem List Item"
              }
            ]
          }
        ],
        "code": {
          "coding": [
            {
              "code": "10509002",
              "system": "http://snomed.info/sct",
              "display": "Acute bronchitis (disorder)"
            }
          ],
          "text": "Acute bronchitis"
        },
        "text": {
          "status": "generated",
          "div": "<div xmlns=\"http://www.w3.org/1999/xhtml\"><table class=\"hl7__ips\"><tr><td><span class=\"grayedout\">Acute bronchitis</span></td><td><span class=\"nb\">15-Apr-2025 - 05-May-2025</span></td><td><span class=\"grayedout\">inactive</span></td></tr></table></div>"
        },
        "onsetDateTime": "2025-04-15",
        "abatementDateTime": "2025-05-05",
        "subject": {
          "reference": "urn:uuid:83f497ae-4229-473a-8a03-b5c9eb803d4c",
          "display": "Ruben Koch II"
        },
        "asserter": {
          "reference": "urn:uuid:3022f7e8-4a20-4d2a-a59c-c162fa842535",
          "display": "Dietrich-Bonhoeffer-Klinikum"
        }
      }
    },
    {
      "fullUrl": "urn:uuid:0ec6cfb4-456d-430b-bace-515bf643bdec",
      "resource": {
        "resourceType": "Condition",
        "id": "0ec6cfb4-456d-430b-bace-515bf643bdec",
        "meta": {
          "profile": [
            "http://hl7.org/fhir/uv/ips/StructureDefinition/Condition-uv-ips"
          ]
        },
        "category": [
          {
            "coding": [
              {
                "code": "problem-list-item",
                "system": "http://terminology.hl7.org/CodeSystem/condition-category",
                "display": "Problem List Item"
              }
            ]
          }
        ],
        "code": {
          "coding": [
            {
              "code": "284551006",
              "system": "http://snomed.info/sct",
              "display": "Laceration of foot (disorder)"
            }
          ],
          "text": "Laceration of foot"
        },
        "text": {
          "status": "generated",
          "div": "<div xmlns=\"http://www.w3.org/1999/xhtml\"><table class=\"hl7__ips\"><tr><td><span class=\"grayedout\">Laceration of foot</span></td><td><span class=\"nb\">01-Nov-2021 - 22-Nov-2021</span></td><td><span class=\"grayedout\">inactive</span></td></tr></table></div>"
        },
        "onsetDateTime": "2021-11-01",
        "abatementDateTime": "2021-11-22",
        "subject": {
          "reference": "urn:uuid:83f497ae-4229-473a-8a03-b5c9eb803d4c",
          "display": "Ruben Koch II"
        },
        "asserter": {
          "reference": "urn:uuid:3022f7e8-4a20-4d2a-a59c-c162fa842535",
          "display": "Dietrich-Bonhoeffer-Klinikum"
        }
      }
    },
    {
      "fullUrl": "urn:uuid:d9874be1-00bc-44c1-821d-685a08a04164",
      "resource": {
        "resourceType": "Condition",
        "id": "d9874be1-00bc-44c1-821d-685a08a04164",
        "meta": {
          "profile": [
            "http://hl7.org/fhir/uv/ips/StructureDefinition/Condition-uv-ips"
          ]
        },
        "category": [
          {
            "coding": [
              {
                "code": "problem-list-item",
                "system": "http://terminology.hl7.org/CodeSystem/condition-category",
                "display": "Problem List Item"
              }
            ]
          }
        ],
        "code": {
          "coding": [
            {
              "code": "312608009",
              "system": "http://snomed.info/sct",
              "display": "Laceration - injury (disorder)"
            }
          ],
          "text": "Laceration - injury"
        },
        "text": {
          "status": "generated",
          "div": "<div xmlns=\"http://www.w3.org/1999/xhtml\"><table class=\"hl7__ips\"><tr><td><span class=\"grayedout\">Laceration - injury</span></td><td><span class=\"nb\">01-Nov-2021 - 22-Nov-2021</span></td><td><span class=\"grayedout\">inactive</span></td></tr></table></div>"
        },
        "onsetDateTime": "2021-11-01",
        "abatementDateTime": "2021-11-22",
        "subject": {
          "reference": "urn:uuid:83f497ae-4229-473a-8a03-b5c9eb803d4c",
          "display": "Ruben Koch II"
        },
        "asserter": {
          "reference": "urn:uuid:3022f7e8-4a20-4d2a-a59c-c162fa842535",
          "display": "Dietrich-Bonhoeffer-Klinikum"
        }
      }
    },
    {
      "fullUrl": "urn:uuid:fff7839d-3e3d-48ba-a367-dd2280ac1144",
      "resource": {
        "resourceType": "Condition",
        "id": "fff7839d-3e3d-48ba-a367-dd2280ac1144",
        "meta": {
          "profile": [
            "http://hl7.org/fhir/uv/ips/StructureDefinition/Condition-uv-ips"
          ]
        },
        "category": [
          {
            "coding": [
              {
                "code": "problem-list-item",
                "system": "http://terminology.hl7.org/CodeSystem/condition-category",
                "display": "Problem List Item"
              }
            ]
          }
        ],
        "code": {
          "coding": [
            {
              "code": "444814009",
              "system": "http://snomed.info/sct",
              "display": "Viral sinusitis (disorder)"
            }
          ],
          "text": "Viral sinusitis"
        },
        "text": {
          "status": "generated",
          "div": "<div xmlns=\"http://www.w3.org/1999/xhtml\"><table class=\"hl7__ips\"><tr><td><span class=\"grayedout\">Viral sinusitis</span></td><td><span class=\"nb\">15-Apr-2020 - 24-Apr-2020</span></td><td><span class=\"grayedout\">inactive</span></td></tr></table></div>"
        },
        "onsetDateTime": "2020-04-15",
        "abatementDateTime": "2020-04-24",
        "subject": {
          "reference": "urn:uuid:83f497ae-4229-473a-8a03-b5c9eb803d4c",
          "display": "Ruben Koch II"
        },
        "asserter": {
          "reference": "urn:uuid:3022f7e8-4a20-4d2a-a59c-c162fa842535",
          "display": "Dietrich-Bonhoeffer-Klinikum"
        }
      }
    },
    {
      "fullUrl": "urn:uuid:bd3c06fe-3c12-4d85-ba23-701dc0c36e26",
      "resource": {
        "resourceType": "Condition",
        "id": "bd3c06fe-3c12-4d85-ba23-701dc0c36e26",
        "meta": {
          "profile": [
            "http://hl7.org/fhir/uv/ips/StructureDefinition/Condition-uv-ips"
          ]
        },
        "category": [
          {
            "coding": [
              {
                "code": "problem-list-item",
                "system": "http://terminology.hl7.org/CodeSystem/condition-category",
                "display": "Problem List Item"
              }
            ]
          }
        ],
        "code": {
          "coding": [
            {
              "code": "195662009",
              "system": "http://snomed.info/sct",
              "display": "Acute viral pharyngitis (disorder)"
            }
          ],
          "text": "Acute viral pharyngitis"
        },
        "text": {
          "status": "generated",
          "div": "<div xmlns=\"http://www.w3.org/1999/xhtml\"><table class=\"hl7__ips\"><tr><td><span class=\"grayedout\">Acute viral pharyngitis</span></td><td><span class=\"nb\">06-Jan-2020 - 16-Jan-2020</span></td><td><span class=\"grayedout\">inactive</span></td></tr></table></div>"
        },
        "onsetDateTime": "2020-01-06",
        "abatementDateTime": "2020-01-16",
        "subject": {
          "reference": "urn:uuid:83f497ae-4229-473a-8a03-b5c9eb803d4c",
          "display": "Ruben Koch II"
        },
        "asserter": {
          "reference": "urn:uuid:3022f7e8-4a20-4d2a-a59c-c162fa842535",
          "display": "Dietrich-Bonhoeffer-Klinikum"
        }
      }
    },
    {
      "fullUrl": "urn:uuid:2ded4eb5-eb4e-4498-b35d-04d61c6e0ed8",
      "resource": {
        "resourceType": "Condition",
        "id": "2ded4eb5-eb4e-4498-b35d-04d61c6e0ed8",
        "meta": {
          "profile": [
            "http://hl7.org/fhir/uv/ips/StructureDefinition/Condition-uv-ips"
          ]
        },
        "category": [
          {
            "coding": [
              {
                "code": "problem-list-item",
                "system": "http://terminology.hl7.org/CodeSystem/condition-category",
                "display": "Problem List Item"
              }
            ]
          }
        ],
        "code": {
          "coding": [
            {
              "code": "444814009",
              "system": "http://snomed.info/sct",
              "display": "Viral sinusitis (disorder)"
            }
          ],
          "text": "Viral sinusitis"
        },
        "text": {
          "status": "generated",
          "div": "<div xmlns=\"http://www.w3.org/1999/xhtml\"><table class=\"hl7__ips\"><tr><td><span class=\"grayedout\">Viral sinusitis</span></td><td><span class=\"nb\">15-Jan-2019 - 10-Feb-2019</span></td><td><span class=\"grayedout\">inactive</span></td></tr></table></div>"
        },
        "onsetDateTime": "2019-01-15",
        "abatementDateTime": "2019-02-10",
        "subject": {
          "reference": "urn:uuid:83f497ae-4229-473a-8a03-b5c9eb803d4c",
          "display": "Ruben Koch II"
        },
        "asserter": {
          "reference": "urn:uuid:3022f7e8-4a20-4d2a-a59c-c162fa842535",
          "display": "Dietrich-Bonhoeffer-Klinikum"
        }
      }
    },
    {
      "fullUrl": "urn:uuid:0b7b20a9-6db5-4a4a-9deb-22b4eedf98eb",
      "resource": {
        "resourceType": "MedicationStatement",
        "id": "0b7b20a9-6db5-4a4a-9deb-22b4eedf98eb",
        "meta": {
          "profile": [
            "http://hl7.eu/fhir/eps/StructureDefinition/MedicationStatement-eu-eps"
          ]
        },
        "effectivePeriod": {
          "extension": [
            {
              "url": "http://hl7.org/fhir/StructureDefinition/data-absent-reason",
              "valueCode": "unknown"
            }
          ]
        },
        "status": "active",
        "medicationCodeableConcept": {
          "coding": [
            {
              "code": "787481004",
              "system": "http://snomed.info/sct",
              "display": "No known medications (situation)"
            }
          ]
        },
        "subject": {
          "reference": "urn:uuid:83f497ae-4229-473a-8a03-b5c9eb803d4c",
          "display": "Ruben Koch II"
        }
      }
    },
    {
      "fullUrl": "urn:uuid:db153174-a0ad-417d-8755-68d59a56f053",
      "resource": {
        "resourceType": "Immunization",
        "id": "db153174-a0ad-417d-8755-68d59a56f053",
        "meta": {
          "profile": [
            "http://hl7.org/fhir/uv/ips/StructureDefinition/Immunization-uv-ips"
          ]
        },
        "vaccineCode": {
          "coding": [
            {
              "code": "1181000221105",
              "system": "http://snomed.info/sct",
              "display": "Vaccine product containing Influenza virus antigen"
            },
            {
              "code": "J07BB02",
              "system": "http://www.whocc.no/atc",
              "display": "Influenza, inactivated, split virus"
            }
          ],
          "text": "Influenza virus antigen only vaccine product"
        },
        "site": {
          "coding": [
            {
              "code": "244979005",
              "system": "http://snomed.info/sct",
              "display": "Entire muscle of upper arm"
            }
          ],
          "text": "Entire muscle of upper arm"
        },
        "route": {
          "coding": [
            {
              "code": "78421000",
              "system": "http://snomed.info/sct",
              "display": "Intramuscular route"
            }
          ],
          "text": "Intramuscular route"
        },
        "text": {
          "status": "generated",
          "div": "<div xmlns=\"http://www.w3.org/1999/xhtml\"><table class=\"hl7__ips\"><tr><td>Influenza virus antigen only vaccine product</td><td><span class=\"nb\">08-Apr-2025</span></td></tr></table></div>"
        },
        "status": "completed",
        "patient": {
          "reference": "urn:uuid:83f497ae-4229-473a-8a03-b5c9eb803d4c",
          "display": "Ruben Koch II"
        },
        "occurrenceDateTime": "2025-04-08",
        "lotNumber": "ZW-RUSKZ",
        "expirationDate": "2025-11-09"
      }
    },
    {
      "fullUrl": "urn:uuid:90894822-3cb5-4f09-b5a9-06588c62d66f",
      "resource": {
        "resourceType": "Immunization",
        "id": "90894822-3cb5-4f09-b5a9-06588c62d66f",
        "meta": {
          "profile": [
            "http://hl7.org/fhir/uv/ips/StructureDefinition/Immunization-uv-ips"
          ]
        },
        "vaccineCode": {
          "coding": [
            {
              "code": "1119349007",
              "system": "http://snomed.info/sct",
              "display": "Vaccine product containing SARS-CoV-2 mRNA"
            },
            {
              "code": "J07BX03",
              "system": "http://www.whocc.no/atc",
              "display": "COVID-19 mRNA vaccines"
            }
          ],
          "text": "SARS-CoV-2 mRNA vaccine"
        },
        "site": {
          "coding": [
            {
              "code": "244979005",
              "system": "http://snomed.info/sct",
              "display": "Entire muscle of upper arm"
            }
          ],
          "text": "Entire muscle of upper arm"
        },
        "route": {
          "coding": [
            {
              "code": "78421000",
              "system": "http://snomed.info/sct",
              "display": "Intramuscular route"
            }
          ],
          "text": "Intramuscular route"
        },
        "text": {
          "status": "generated",
          "div": "<div xmlns=\"http://www.w3.org/1999/xhtml\"><table class=\"hl7__ips\"><tr><td>SARS-CoV-2 mRNA vaccine</td><td><span class=\"nb\">13-Apr-2021</span></td></tr></table></div>"
        },
        "status": "completed",
        "patient": {
          "reference": "urn:uuid:83f497ae-4229-473a-8a03-b5c9eb803d4c",
          "display": "Ruben Koch II"
        },
        "occurrenceDateTime": "2021-04-13",
        "lotNumber": "XN-uGK6PbGnX",
        "expirationDate": "2021-08-24"
      }
    },
    {
      "fullUrl": "urn:uuid:ab1b0e09-69bd-4831-9764-2223e7b4961b",
      "resource": {
        "resourceType": "Immunization",
        "id": "ab1b0e09-69bd-4831-9764-2223e7b4961b",
        "meta": {
          "profile": [
            "http://hl7.org/fhir/uv/ips/StructureDefinition/Immunization-uv-ips"
          ]
        },
        "vaccineCode": {
          "coding": [
            {
              "code": "871751006",
              "system": "http://snomed.info/sct",
              "display": "Vaccine product containing Hepatitis A virus antigen"
            },
            {
              "code": "J07BC02",
              "system": "http://www.whocc.no/atc",
              "display": "Hepatitis A vaccines"
            }
          ],
          "text": "Hepatitis A virus antigen only vaccine product"
        },
        "site": {
          "coding": [
            {
              "code": "244979005",
              "system": "http://snomed.info/sct",
              "display": "Entire muscle of upper arm"
            }
          ],
          "text": "Entire muscle of upper arm"
        },
        "route": {
          "coding": [
            {
              "code": "78421000",
              "system": "http://snomed.info/sct",
              "display": "Intramuscular route"
            }
          ],
          "text": "Intramuscular route"
        },
        "text": {
          "status": "generated",
          "div": "<div xmlns=\"http://www.w3.org/1999/xhtml\"><table class=\"hl7__ips\"><tr><td>Hepatitis A virus antigen only vaccine product</td><td><span class=\"nb\">14-Jan-2020</span></td></tr></table></div>"
        },
        "status": "completed",
        "patient": {
          "reference": "urn:uuid:83f497ae-4229-473a-8a03-b5c9eb803d4c",
          "display": "Ruben Koch II"
        },
        "occurrenceDateTime": "2020-01-14",
        "lotNumber": "QB-dsTeLO",
        "expirationDate": "2020-12-30"
      }
    },
    {
      "fullUrl": "urn:uuid:deb32125-9554-42cd-b0e1-6a64fcff6a6a",
      "resource": {
        "resourceType": "Immunization",
        "id": "deb32125-9554-42cd-b0e1-6a64fcff6a6a",
        "meta": {
          "profile": [
            "http://hl7.org/fhir/uv/ips/StructureDefinition/Immunization-uv-ips"
          ]
        },
        "vaccineCode": {
          "coding": [
            {
              "code": "777725002",
              "system": "http://snomed.info/sct",
              "display": "Vaccine product containing only Clostridium tetani toxoid antigen adsorbed"
            },
            {
              "code": "J07AM51",
              "system": "http://www.whocc.no/atc",
              "display": "Diphtheria-tetanus vaccines, adult type"
            }
          ],
          "text": "Clostridium tetani toxoid antigen adsorbed only vaccine product"
        },
        "site": {
          "coding": [
            {
              "code": "244979005",
              "system": "http://snomed.info/sct",
              "display": "Entire muscle of upper arm"
            }
          ],
          "text": "Entire muscle of upper arm"
        },
        "route": {
          "coding": [
            {
              "code": "78421000",
              "system": "http://snomed.info/sct",
              "display": "Intramuscular route"
            }
          ],
          "text": "Intramuscular route"
        },
        "text": {
          "status": "generated",
          "div": "<div xmlns=\"http://www.w3.org/1999/xhtml\"><table class=\"hl7__ips\"><tr><td>Clostridium tetani toxoid antigen adsorbed only vaccine product</td><td><span class=\"nb\">14-Jan-2020</span></td></tr></table></div>"
        },
        "status": "completed",
        "patient": {
          "reference": "urn:uuid:83f497ae-4229-473a-8a03-b5c9eb803d4c",
          "display": "Ruben Koch II"
        },
        "occurrenceDateTime": "2020-01-14",
        "lotNumber": "YN-L89dXg",
        "expirationDate": "2020-06-09"
      }
    },
    {
      "fullUrl": "urn:uuid:def68663-af52-472b-8cad-4a64ed04c0d9",
      "resource": {
        "resourceType": "Procedure",
        "id": "def68663-af52-472b-8cad-4a64ed04c0d9",
        "meta": {
          "profile": [
            "http://hl7.org/fhir/uv/ips/StructureDefinition/Procedure-uv-ips"
          ]
        },
        "code": {
          "coding": [
            {
              "code": "288086009",
              "system": "http://snomed.info/sct",
              "display": "Suture open wound"
            }
          ],
          "text": "Suture open wound"
        },
        "reasonCode": [
          {
            "coding": [
              {
                "code": "284551006",
                "system": "http://snomed.info/sct",
                "display": "Laceration of foot"
              }
            ]
          }
        ],
        "text": {
          "status": "generated",
          "div": "<div xmlns=\"http://www.w3.org/1999/xhtml\"><table class=\"hl7__ips\"><tr><td>Suture open wound</td><td><span class=\"nb\">01-Nov-2021</span></td><td>Laceration of foot</td></tr></table></div>"
        },
        "status": "completed",
        "performedDateTime": "2021-11-01",
        "subject": {
          "reference": "urn:uuid:83f497ae-4229-473a-8a03-b5c9eb803d4c",
          "display": "Ruben Koch II"
        }
      }
    },
    {
      "fullUrl": "urn:uuid:1d5e1fed-f3fe-4fcb-83b6-a8df5c7fa843",
      "resource": {
        "resourceType": "AllergyIntolerance",
        "id": "1d5e1fed-f3fe-4fcb-83b6-a8df5c7fa843",
        "meta": {
          "profile": [
            "http://hl7.eu/fhir/base/StructureDefinition/allergyIntolerance-eu-core"
          ]
        },
        "code": {
          "text": ""
        },
        "clinicalStatus": {
          "coding": [
            {
              "code": "active",
              "system": "http://terminology.hl7.org/CodeSystem/allergyintolerance-clinical"
            }
          ]
        },
        "text": {
          "status": "generated",
          "div": "<div xmlns=\"http://www.w3.org/1999/xhtml\"><table class=\"hl7__ips\"><tr><th>Allergy/Intolerance</th><th>Onset Date</th><th>Status</th><th>Type</th><th>Reaction</th></tr><tr><td></td><td>?</td><td>active</td><td>?</td><td></td></tr></table></div>"
        },
        "verificationStatus": {
          "coding": [
            {
              "code": "confirmed",
              "system": "http://terminology.hl7.org/CodeSystem/allergyintolerance-verification"
            }
          ]
        },
        "patient": {
          "reference": "urn:uuid:83f497ae-4229-473a-8a03-b5c9eb803d4c",
          "display": "Ruben Koch II"
        },
        "_onsetDateTime": {
          "extension": [
            {
              "url": "http://hl7.org/fhir/StructureDefinition/data-absent-reason",
              "valueCode": "unknown"
            }
          ]
        }
      }
    },
    {
      "fullUrl": "urn:uuid:a739a928-28d2-4b9f-9b6a-60c3f3906c9a",
      "resource": {
        "resourceType": "CarePlan",
        "id": "a739a928-28d2-4b9f-9b6a-60c3f3906c9a",
        "category": [
          {
            "coding": [
              {
                "code": "assess-plan",
                "system": "http://terminology.hl7.org/CodeSystem/care-plan-category",
                "display": "Assessment and Plan"
              }
            ]
          }
        ],
        "activity": [
          {
            "detail": {
              "code": {
                "coding": [
                  {
                    "code": "53950000",
                    "system": "http://snomed.info/sct",
                    "display": "Respiratory therapy (procedure)"
                  }
                ]
              },
              "status": "unknown",
              "description": "Respiratory therapy",
              "kind": "Appointment"
            }
          }
        ],
        "period": {
          "start": "2025-04-15"
        },
        "text": {
          "status": "generated",
          "div": "<div xmlns=\"http://www.w3.org/1999/xhtml\"><table class=\"hl7__ips first25\"><tr><th>Active Planned Care / Goals</th><th>Start Date</th><th>Reason</th></tr><tr><td>Respiratory therapy</td><td><span class=\"nb\">15-Apr-2025</span></td><td>-</td></tr></table></div>"
        },
        "status": "active",
        "intent": "plan",
        "subject": {
          "reference": "urn:uuid:83f497ae-4229-473a-8a03-b5c9eb803d4c",
          "display": "Ruben Koch II"
        }
      }
    },
    {
      "fullUrl": "urn:uuid:149a7e8c-e676-4bc2-8ebe-0cd6e026b0c8",
      "resource": {
        "resourceType": "CarePlan",
        "id": "149a7e8c-e676-4bc2-8ebe-0cd6e026b0c8",
        "category": [
          {
            "coding": [
              {
                "code": "assess-plan",
                "system": "http://terminology.hl7.org/CodeSystem/care-plan-category",
                "display": "Assessment and Plan"
              }
            ]
          }
        ],
        "activity": [
          {
            "detail": {
              "code": {
                "coding": [
                  {
                    "code": "443402002",
                    "system": "http://snomed.info/sct",
                    "display": "Lifestyle education regarding hypertension (procedure)"
                  }
                ]
              },
              "reasonCode": [
                {
                  "coding": [
                    {
                      "code": "59621000",
                      "system": "http://snomed.info/sct",
                      "display": "Essential hypertension (disorder)"
                    }
                  ]
                }
              ],
              "status": "unknown",
              "description": "Lifestyle education regarding hypertension",
              "kind": "Appointment"
            }
          }
        ],
        "period": {
          "start": "2021-01-26"
        },
        "goal": [
          {
            "reference": "urn:uuid:2c61abe5-b2ff-4a20-a110-1edd451c1800"
          },
          {
            "reference": "urn:uuid:72a2b678-b7d1-4059-881f-5c7e5dcc58a5"
          },
          {
            "reference": "urn:uuid:882d4b4c-4b03-420e-9bb6-27d29ef924de"
          },
          {
            "reference": "urn:uuid:7141085e-9a7b-48d8-8b8a-768961ec5264"
          }
        ],
        "text": {
          "status": "generated",
          "div": "<div xmlns=\"http://www.w3.org/1999/xhtml\"><table class=\"hl7__ips first25\"><tr><th>Active Planned Care / Goals</th><th>Start Date</th><th>Reason</th></tr><tr><td>Lifestyle education regarding hypertension</td><td><span class=\"nb\">26-Jan-2021</span></td><td>Essential hypertension (disorder)</td></tr><tr><td><ul><li>Maintain blood pressure below 130/80 mmHg through lifestyle modification</li><li>Reduce body weight to target BMI less than 25 kg/m2</li><li>Limit daily sodium intake to less than 2.3 grams</li><li>Engage in at least 150 minutes of moderate-intensity aerobic activity per week</li></ul></td><td></td><td></td></tr></table></div>"
        },
        "status": "active",
        "intent": "plan",
        "subject": {
          "reference": "urn:uuid:83f497ae-4229-473a-8a03-b5c9eb803d4c",
          "display": "Ruben Koch II"
        }
      }
    },
    {
      "fullUrl": "urn:uuid:be5cf0d9-0cc2-40e9-8be8-c99a78bda503",
      "resource": {
        "resourceType": "CarePlan",
        "id": "be5cf0d9-0cc2-40e9-8be8-c99a78bda503",
        "category": [
          {
            "coding": [
              {
                "code": "assess-plan",
                "system": "http://terminology.hl7.org/CodeSystem/care-plan-category",
                "display": "Assessment and Plan"
              }
            ]
          }
        ],
        "activity": [
          {
            "detail": {
              "code": {
                "coding": [
                  {
                    "code": "698360004",
                    "system": "http://snomed.info/sct",
                    "display": "Diabetes self management plan (qualifier value)"
                  }
                ]
              },
              "reasonCode": [
                {
                  "coding": [
                    {
                      "code": "44054006",
                      "system": "http://snomed.info/sct",
                      "display": "Diabetes mellitus type 2 (disorder)"
                    }
                  ]
                }
              ],
              "status": "unknown",
              "description": "Diabetes self management plan",
              "kind": "Appointment"
            }
          }
        ],
        "period": {
          "start": "2020-01-14"
        },
        "goal": [
          {
            "reference": "urn:uuid:c24e239b-6df4-42d6-8445-d6226f32865c"
          },
          {
            "reference": "urn:uuid:771d6307-2f26-4698-8131-5f27fd72e0b3"
          },
          {
            "reference": "urn:uuid:8a4010af-2fc5-44bf-bf94-dbcdf4e877ff"
          },
          {
            "reference": "urn:uuid:dc03a1e8-5a51-4846-a4dc-e3681a4fe6fc"
          }
        ],
        "text": {
          "status": "generated",
          "div": "<div xmlns=\"http://www.w3.org/1999/xhtml\"><table class=\"hl7__ips first25\"><tr><th>Active Planned Care / Goals</th><th>Start Date</th><th>Reason</th></tr><tr><td>Diabetes self management plan</td><td><span class=\"nb\">14-Jan-2020</span></td><td>Diabetes mellitus type 2 (disorder)</td></tr><tr><td><ul><li>Patient will demonstrate understanding and application of diabetes self-management, including blood glucose monitoring, medication adherence, diet, and physical activity.</li><li>Achieve and maintain HbA1c at individualized target level.</li><li>Maintain fasting blood glucose within recommended range.</li><li>Patient will check and record blood glucose as recommended by care team.</li></ul></td><td></td><td></td></tr></table></div>"
        },
        "status": "active",
        "intent": "plan",
        "subject": {
          "reference": "urn:uuid:83f497ae-4229-473a-8a03-b5c9eb803d4c",
          "display": "Ruben Koch II"
        }
      }
    },
    {
      "fullUrl": "urn:uuid:6b201569-32c7-463b-ac7d-1915a369e0f5",
      "resource": {
        "resourceType": "Observation",
        "id": "6b201569-32c7-463b-ac7d-1915a369e0f5",
        "meta": {
          "profile": [
            "http://hl7.org/fhir/StructureDefinition/vitalsigns"
          ]
        },
        "category": [
          {
            "coding": [
              {
                "system": "http://terminology.hl7.org/CodeSystem/observation-category",
                "code": "vital-signs",
                "display": "Vital Signs"
              }
            ]
          }
        ],
        "valueQuantity": {
          "value": 176.5,
          "code": "cm",
          "unit": "cm"
        },
        "text": {
          "status": "generated",
          "div": "<div xmlns=\"http://www.w3.org/1999/xhtml\"><table class=\"hl7__ips\"><tr><th>Vital Sign</th><th>Date</th><th>Measurement</th></tr><tr><td>Body Height</td><td>08-Apr-2025</td><td>176.5 cm</td></tr></table></div>"
        },
        "status": "final",
        "code": {
          "coding": [
            {
              "code": "8302-2",
              "system": "http://loinc.org",
              "display": "Body Height"
            }
          ]
        },
        "subject": {
          "reference": "urn:uuid:83f497ae-4229-473a-8a03-b5c9eb803d4c",
          "display": "Ruben Koch II"
        },
        "effectiveDateTime": "2025-04-08"
      }
    },
    {
      "fullUrl": "urn:uuid:2dc7fc03-f330-4cda-829d-eaca39a46ff2",
      "resource": {
        "resourceType": "Observation",
        "id": "2dc7fc03-f330-4cda-829d-eaca39a46ff2",
        "meta": {
          "profile": [
            "http://hl7.org/fhir/StructureDefinition/vitalsigns"
          ]
        },
        "category": [
          {
            "coding": [
              {
                "system": "http://terminology.hl7.org/CodeSystem/observation-category",
                "code": "vital-signs",
                "display": "Vital Signs"
              }
            ]
          }
        ],
        "valueQuantity": {
          "value": 3,
          "code": "{score}",
          "unit": "{score}"
        },
        "text": {
          "status": "generated",
          "div": "<div xmlns=\"http://www.w3.org/1999/xhtml\"><table class=\"hl7__ips\"><tr><th>Vital Sign</th><th>Date</th><th>Measurement</th></tr><tr><td>Pain severity - 0-10 verbal numeric rating [Score] - Reported</td><td>08-Apr-2025</td><td>3 {score}</td></tr></table></div>"
        },
        "status": "final",
        "code": {
          "coding": [
            {
              "code": "72514-3",
              "system": "http://loinc.org",
              "display": "Pain severity - 0-10 verbal numeric rating [Score] - Reported"
            }
          ]
        },
        "subject": {
          "reference": "urn:uuid:83f497ae-4229-473a-8a03-b5c9eb803d4c",
          "display": "Ruben Koch II"
        },
        "effectiveDateTime": "2025-04-08"
      }
    },
    {
      "fullUrl": "urn:uuid:77c8edc3-1e09-41bb-a245-7596df43075b",
      "resource": {
        "resourceType": "Observation",
        "id": "77c8edc3-1e09-41bb-a245-7596df43075b",
        "meta": {
          "profile": [
            "http://hl7.org/fhir/StructureDefinition/vitalsigns"
          ]
        },
        "category": [
          {
            "coding": [
              {
                "system": "http://terminology.hl7.org/CodeSystem/observation-category",
                "code": "vital-signs",
                "display": "Vital Signs"
              }
            ]
          }
        ],
        "valueQuantity": {
          "value": 92.9,
          "code": "kg",
          "unit": "kg"
        },
        "text": {
          "status": "generated",
          "div": "<div xmlns=\"http://www.w3.org/1999/xhtml\"><table class=\"hl7__ips\"><tr><th>Vital Sign</th><th>Date</th><th>Measurement</th></tr><tr><td>Body Weight</td><td>08-Apr-2025</td><td>92.9 kg</td></tr></table></div>"
        },
        "status": "final",
        "code": {
          "coding": [
            {
              "code": "29463-7",
              "system": "http://loinc.org",
              "display": "Body Weight"
            }
          ]
        },
        "subject": {
          "reference": "urn:uuid:83f497ae-4229-473a-8a03-b5c9eb803d4c",
          "display": "Ruben Koch II"
        },
        "effectiveDateTime": "2025-04-08"
      }
    },
    {
      "fullUrl": "urn:uuid:4939fa63-08e6-44af-b1bf-3c6f15265867",
      "resource": {
        "resourceType": "Observation",
        "id": "4939fa63-08e6-44af-b1bf-3c6f15265867",
        "meta": {
          "profile": [
            "http://hl7.org/fhir/StructureDefinition/vitalsigns"
          ]
        },
        "category": [
          {
            "coding": [
              {
                "system": "http://terminology.hl7.org/CodeSystem/observation-category",
                "code": "vital-signs",
                "display": "Vital Signs"
              }
            ]
          }
        ],
        "valueQuantity": {
          "value": 29.8,
          "code": "kg/m2",
          "unit": "kg/m2"
        },
        "text": {
          "status": "generated",
          "div": "<div xmlns=\"http://www.w3.org/1999/xhtml\"><table class=\"hl7__ips\"><tr><th>Vital Sign</th><th>Date</th><th>Measurement</th></tr><tr><td>Body mass index (BMI) [Ratio]</td><td>08-Apr-2025</td><td>29.8 kg/m2</td></tr></table></div>"
        },
        "status": "final",
        "code": {
          "coding": [
            {
              "code": "39156-5",
              "system": "http://loinc.org",
              "display": "Body mass index (BMI) [Ratio]"
            }
          ]
        },
        "subject": {
          "reference": "urn:uuid:83f497ae-4229-473a-8a03-b5c9eb803d4c",
          "display": "Ruben Koch II"
        },
        "effectiveDateTime": "2025-04-08"
      }
    },
    {
      "fullUrl": "urn:uuid:de701b86-bf17-4d08-b8b4-5e89b11f5637",
      "resource": {
        "resourceType": "Observation",
        "id": "de701b86-bf17-4d08-b8b4-5e89b11f5637",
        "meta": {
          "profile": [
            "http://hl7.org/fhir/StructureDefinition/vitalsigns"
          ]
        },
        "category": [
          {
            "coding": [
              {
                "system": "http://terminology.hl7.org/CodeSystem/observation-category",
                "code": "vital-signs",
                "display": "Vital Signs"
              }
            ]
          }
        ],
        "valueQuantity": {
          "value": 87,
          "code": "mm[Hg]",
          "unit": "mm[Hg]"
        },
        "text": {
          "status": "generated",
          "div": "<div xmlns=\"http://www.w3.org/1999/xhtml\"><table class=\"hl7__ips\"><tr><th>Vital Sign</th><th>Date</th><th>Measurement</th></tr><tr><td>Diastolic Blood Pressure</td><td>08-Apr-2025</td><td>87 mm[Hg]</td></tr></table></div>"
        },
        "status": "final",
        "code": {
          "coding": [
            {
              "code": "8462-4",
              "system": "http://loinc.org",
              "display": "Diastolic Blood Pressure"
            }
          ]
        },
        "subject": {
          "reference": "urn:uuid:83f497ae-4229-473a-8a03-b5c9eb803d4c",
          "display": "Ruben Koch II"
        },
        "effectiveDateTime": "2025-04-08"
      }
    },
    {
      "fullUrl": "urn:uuid:fd7dc433-22a9-4e4a-953e-dbac2dea8f90",
      "resource": {
        "resourceType": "Observation",
        "id": "fd7dc433-22a9-4e4a-953e-dbac2dea8f90",
        "meta": {
          "profile": [
            "http://hl7.org/fhir/StructureDefinition/vitalsigns"
          ]
        },
        "category": [
          {
            "coding": [
              {
                "system": "http://terminology.hl7.org/CodeSystem/observation-category",
                "code": "vital-signs",
                "display": "Vital Signs"
              }
            ]
          }
        ],
        "valueQuantity": {
          "value": 141,
          "code": "mm[Hg]",
          "unit": "mm[Hg]"
        },
        "text": {
          "status": "generated",
          "div": "<div xmlns=\"http://www.w3.org/1999/xhtml\"><table class=\"hl7__ips\"><tr><th>Vital Sign</th><th>Date</th><th>Measurement</th></tr><tr><td>Systolic Blood Pressure</td><td>08-Apr-2025</td><td>141 mm[Hg]</td></tr></table></div>"
        },
        "status": "final",
        "code": {
          "coding": [
            {
              "code": "8480-6",
              "system": "http://loinc.org",
              "display": "Systolic Blood Pressure"
            }
          ]
        },
        "subject": {
          "reference": "urn:uuid:83f497ae-4229-473a-8a03-b5c9eb803d4c",
          "display": "Ruben Koch II"
        },
        "effectiveDateTime": "2025-04-08"
      }
    },
    {
      "fullUrl": "urn:uuid:da8d0d4b-ce54-4fdd-b4be-9c8e2c86ed0c",
      "resource": {
        "resourceType": "Observation",
        "id": "da8d0d4b-ce54-4fdd-b4be-9c8e2c86ed0c",
        "meta": {
          "profile": [
            "http://hl7.org/fhir/StructureDefinition/vitalsigns"
          ]
        },
        "category": [
          {
            "coding": [
              {
                "system": "http://terminology.hl7.org/CodeSystem/observation-category",
                "code": "vital-signs",
                "display": "Vital Signs"
              }
            ]
          }
        ],
        "valueQuantity": {
          "value": 67,
          "code": "/min",
          "unit": "/min"
        },
        "text": {
          "status": "generated",
          "div": "<div xmlns=\"http://www.w3.org/1999/xhtml\"><table class=\"hl7__ips\"><tr><th>Vital Sign</th><th>Date</th><th>Measurement</th></tr><tr><td>Heart rate</td><td>08-Apr-2025</td><td>67 /min</td></tr></table></div>"
        },
        "status": "final",
        "code": {
          "coding": [
            {
              "code": "8867-4",
              "system": "http://loinc.org",
              "display": "Heart rate"
            }
          ]
        },
        "subject": {
          "reference": "urn:uuid:83f497ae-4229-473a-8a03-b5c9eb803d4c",
          "display": "Ruben Koch II"
        },
        "effectiveDateTime": "2025-04-08"
      }
    },
    {
      "fullUrl": "urn:uuid:5c466ae2-b88d-4117-a357-d6679a239e59",
      "resource": {
        "resourceType": "Observation",
        "id": "5c466ae2-b88d-4117-a357-d6679a239e59",
        "meta": {
          "profile": [
            "http://hl7.org/fhir/StructureDefinition/vitalsigns"
          ]
        },
        "category": [
          {
            "coding": [
              {
                "system": "http://terminology.hl7.org/CodeSystem/observation-category",
                "code": "vital-signs",
                "display": "Vital Signs"
              }
            ]
          }
        ],
        "valueQuantity": {
          "value": 14,
          "code": "/min",
          "unit": "/min"
        },
        "text": {
          "status": "generated",
          "div": "<div xmlns=\"http://www.w3.org/1999/xhtml\"><table class=\"hl7__ips\"><tr><th>Vital Sign</th><th>Date</th><th>Measurement</th></tr><tr><td>Respiratory rate</td><td>08-Apr-2025</td><td>14 /min</td></tr></table></div>"
        },
        "status": "final",
        "code": {
          "coding": [
            {
              "code": "9279-1",
              "system": "http://loinc.org",
              "display": "Respiratory rate"
            }
          ]
        },
        "subject": {
          "reference": "urn:uuid:83f497ae-4229-473a-8a03-b5c9eb803d4c",
          "display": "Ruben Koch II"
        },
        "effectiveDateTime": "2025-04-08"
      }
    },
    {
      "fullUrl": "urn:uuid:bb739ae6-ffa4-4f07-8fdb-24971f829cdd",
      "resource": {
        "resourceType": "Observation",
        "id": "bb739ae6-ffa4-4f07-8fdb-24971f829cdd",
        "meta": {
          "profile": [
            "http://hl7.org/fhir/StructureDefinition/vitalsigns"
          ]
        },
        "category": [
          {
            "coding": [
              {
                "system": "http://terminology.hl7.org/CodeSystem/observation-category",
                "code": "vital-signs",
                "display": "Vital Signs"
              }
            ]
          }
        ],
        "valueQuantity": {
          "value": 176.5,
          "code": "cm",
          "unit": "cm"
        },
        "text": {
          "status": "generated",
          "div": "<div xmlns=\"http://www.w3.org/1999/xhtml\"><table class=\"hl7__ips\"><tr><th>Vital Sign</th><th>Date</th><th>Measurement</th></tr><tr><td>Body Height</td><td>18-Feb-2025</td><td>176.5 cm</td></tr></table></div>"
        },
        "status": "final",
        "code": {
          "coding": [
            {
              "code": "8302-2",
              "system": "http://loinc.org",
              "display": "Body Height"
            }
          ]
        },
        "subject": {
          "reference": "urn:uuid:83f497ae-4229-473a-8a03-b5c9eb803d4c",
          "display": "Ruben Koch II"
        },
        "effectiveDateTime": "2025-02-18"
      }
    },
    {
      "fullUrl": "urn:uuid:e32b6d2f-236e-45cc-a8f6-e064ba192d0e",
      "resource": {
        "resourceType": "Observation",
        "id": "e32b6d2f-236e-45cc-a8f6-e064ba192d0e",
        "meta": {
          "profile": [
            "http://hl7.org/fhir/StructureDefinition/vitalsigns"
          ]
        },
        "category": [
          {
            "coding": [
              {
                "system": "http://terminology.hl7.org/CodeSystem/observation-category",
                "code": "vital-signs",
                "display": "Vital Signs"
              }
            ]
          }
        ],
        "valueQuantity": {
          "value": 1,
          "code": "{score}",
          "unit": "{score}"
        },
        "text": {
          "status": "generated",
          "div": "<div xmlns=\"http://www.w3.org/1999/xhtml\"><table class=\"hl7__ips\"><tr><th>Vital Sign</th><th>Date</th><th>Measurement</th></tr><tr><td>Pain severity - 0-10 verbal numeric rating [Score] - Reported</td><td>18-Feb-2025</td><td>1 {score}</td></tr></table></div>"
        },
        "status": "final",
        "code": {
          "coding": [
            {
              "code": "72514-3",
              "system": "http://loinc.org",
              "display": "Pain severity - 0-10 verbal numeric rating [Score] - Reported"
            }
          ]
        },
        "subject": {
          "reference": "urn:uuid:83f497ae-4229-473a-8a03-b5c9eb803d4c",
          "display": "Ruben Koch II"
        },
        "effectiveDateTime": "2025-02-18"
      }
    },
    {
      "fullUrl": "urn:uuid:a84f4beb-7f9a-49c1-b16e-309e9fea19cb",
      "resource": {
        "resourceType": "Observation",
        "id": "a84f4beb-7f9a-49c1-b16e-309e9fea19cb",
        "meta": {
          "profile": [
            "http://hl7.org/fhir/StructureDefinition/vitalsigns"
          ]
        },
        "category": [
          {
            "coding": [
              {
                "system": "http://terminology.hl7.org/CodeSystem/observation-category",
                "code": "vital-signs",
                "display": "Vital Signs"
              }
            ]
          }
        ],
        "valueQuantity": {
          "value": 92.7,
          "code": "kg",
          "unit": "kg"
        },
        "text": {
          "status": "generated",
          "div": "<div xmlns=\"http://www.w3.org/1999/xhtml\"><table class=\"hl7__ips\"><tr><th>Vital Sign</th><th>Date</th><th>Measurement</th></tr><tr><td>Body Weight</td><td>18-Feb-2025</td><td>92.7 kg</td></tr></table></div>"
        },
        "status": "final",
        "code": {
          "coding": [
            {
              "code": "29463-7",
              "system": "http://loinc.org",
              "display": "Body Weight"
            }
          ]
        },
        "subject": {
          "reference": "urn:uuid:83f497ae-4229-473a-8a03-b5c9eb803d4c",
          "display": "Ruben Koch II"
        },
        "effectiveDateTime": "2025-02-18"
      }
    },
    {
      "fullUrl": "urn:uuid:1a99383d-4bbe-4734-91ba-d1824ef9f3ac",
      "resource": {
        "resourceType": "Observation",
        "id": "1a99383d-4bbe-4734-91ba-d1824ef9f3ac",
        "meta": {
          "profile": [
            "http://hl7.org/fhir/StructureDefinition/vitalsigns"
          ]
        },
        "category": [
          {
            "coding": [
              {
                "system": "http://terminology.hl7.org/CodeSystem/observation-category",
                "code": "vital-signs",
                "display": "Vital Signs"
              }
            ]
          }
        ],
        "valueQuantity": {
          "value": 29.8,
          "code": "kg/m2",
          "unit": "kg/m2"
        },
        "text": {
          "status": "generated",
          "div": "<div xmlns=\"http://www.w3.org/1999/xhtml\"><table class=\"hl7__ips\"><tr><th>Vital Sign</th><th>Date</th><th>Measurement</th></tr><tr><td>Body mass index (BMI) [Ratio]</td><td>18-Feb-2025</td><td>29.8 kg/m2</td></tr></table></div>"
        },
        "status": "final",
        "code": {
          "coding": [
            {
              "code": "39156-5",
              "system": "http://loinc.org",
              "display": "Body mass index (BMI) [Ratio]"
            }
          ]
        },
        "subject": {
          "reference": "urn:uuid:83f497ae-4229-473a-8a03-b5c9eb803d4c",
          "display": "Ruben Koch II"
        },
        "effectiveDateTime": "2025-02-18"
      }
    },
    {
      "fullUrl": "urn:uuid:b482306d-d463-4d28-8947-99997338795b",
      "resource": {
        "resourceType": "Observation",
        "id": "b482306d-d463-4d28-8947-99997338795b",
        "meta": {
          "profile": [
            "http://hl7.org/fhir/StructureDefinition/vitalsigns"
          ]
        },
        "category": [
          {
            "coding": [
              {
                "system": "http://terminology.hl7.org/CodeSystem/observation-category",
                "code": "vital-signs",
                "display": "Vital Signs"
              }
            ]
          }
        ],
        "valueQuantity": {
          "value": 90,
          "code": "mm[Hg]",
          "unit": "mm[Hg]"
        },
        "text": {
          "status": "generated",
          "div": "<div xmlns=\"http://www.w3.org/1999/xhtml\"><table class=\"hl7__ips\"><tr><th>Vital Sign</th><th>Date</th><th>Measurement</th></tr><tr><td>Diastolic Blood Pressure</td><td>18-Feb-2025</td><td>90 mm[Hg]</td></tr></table></div>"
        },
        "status": "final",
        "code": {
          "coding": [
            {
              "code": "8462-4",
              "system": "http://loinc.org",
              "display": "Diastolic Blood Pressure"
            }
          ]
        },
        "subject": {
          "reference": "urn:uuid:83f497ae-4229-473a-8a03-b5c9eb803d4c",
          "display": "Ruben Koch II"
        },
        "effectiveDateTime": "2025-02-18"
      }
    },
    {
      "fullUrl": "urn:uuid:aa59367e-4cd4-45e3-bc94-ed2b87017feb",
      "resource": {
        "resourceType": "Observation",
        "id": "aa59367e-4cd4-45e3-bc94-ed2b87017feb",
        "meta": {
          "profile": [
            "http://hl7.org/fhir/StructureDefinition/vitalsigns"
          ]
        },
        "category": [
          {
            "coding": [
              {
                "system": "http://terminology.hl7.org/CodeSystem/observation-category",
                "code": "vital-signs",
                "display": "Vital Signs"
              }
            ]
          }
        ],
        "valueQuantity": {
          "value": 140,
          "code": "mm[Hg]",
          "unit": "mm[Hg]"
        },
        "text": {
          "status": "generated",
          "div": "<div xmlns=\"http://www.w3.org/1999/xhtml\"><table class=\"hl7__ips\"><tr><th>Vital Sign</th><th>Date</th><th>Measurement</th></tr><tr><td>Systolic Blood Pressure</td><td>18-Feb-2025</td><td>140 mm[Hg]</td></tr></table></div>"
        },
        "status": "final",
        "code": {
          "coding": [
            {
              "code": "8480-6",
              "system": "http://loinc.org",
              "display": "Systolic Blood Pressure"
            }
          ]
        },
        "subject": {
          "reference": "urn:uuid:83f497ae-4229-473a-8a03-b5c9eb803d4c",
          "display": "Ruben Koch II"
        },
        "effectiveDateTime": "2025-02-18"
      }
    },
    {
      "fullUrl": "urn:uuid:ee47b5e2-b9a4-4d03-b69d-ce6b1af6654b",
      "resource": {
        "resourceType": "Observation",
        "id": "ee47b5e2-b9a4-4d03-b69d-ce6b1af6654b",
        "meta": {
          "profile": [
            "http://hl7.org/fhir/StructureDefinition/vitalsigns"
          ]
        },
        "category": [
          {
            "coding": [
              {
                "system": "http://terminology.hl7.org/CodeSystem/observation-category",
                "code": "vital-signs",
                "display": "Vital Signs"
              }
            ]
          }
        ],
        "valueQuantity": {
          "value": 98,
          "code": "/min",
          "unit": "/min"
        },
        "text": {
          "status": "generated",
          "div": "<div xmlns=\"http://www.w3.org/1999/xhtml\"><table class=\"hl7__ips\"><tr><th>Vital Sign</th><th>Date</th><th>Measurement</th></tr><tr><td>Heart rate</td><td>18-Feb-2025</td><td>98 /min</td></tr></table></div>"
        },
        "status": "final",
        "code": {
          "coding": [
            {
              "code": "8867-4",
              "system": "http://loinc.org",
              "display": "Heart rate"
            }
          ]
        },
        "subject": {
          "reference": "urn:uuid:83f497ae-4229-473a-8a03-b5c9eb803d4c",
          "display": "Ruben Koch II"
        },
        "effectiveDateTime": "2025-02-18"
      }
    },
    {
      "fullUrl": "urn:uuid:a29a3795-e7a3-4f05-a247-e43d40077475",
      "resource": {
        "resourceType": "Observation",
        "id": "a29a3795-e7a3-4f05-a247-e43d40077475",
        "meta": {
          "profile": [
            "http://hl7.org/fhir/StructureDefinition/vitalsigns"
          ]
        },
        "category": [
          {
            "coding": [
              {
                "system": "http://terminology.hl7.org/CodeSystem/observation-category",
                "code": "vital-signs",
                "display": "Vital Signs"
              }
            ]
          }
        ],
        "valueQuantity": {
          "value": 15,
          "code": "/min",
          "unit": "/min"
        },
        "text": {
          "status": "generated",
          "div": "<div xmlns=\"http://www.w3.org/1999/xhtml\"><table class=\"hl7__ips\"><tr><th>Vital Sign</th><th>Date</th><th>Measurement</th></tr><tr><td>Respiratory rate</td><td>18-Feb-2025</td><td>15 /min</td></tr></table></div>"
        },
        "status": "final",
        "code": {
          "coding": [
            {
              "code": "9279-1",
              "system": "http://loinc.org",
              "display": "Respiratory rate"
            }
          ]
        },
        "subject": {
          "reference": "urn:uuid:83f497ae-4229-473a-8a03-b5c9eb803d4c",
          "display": "Ruben Koch II"
        },
        "effectiveDateTime": "2025-02-18"
      }
    },
    {
      "fullUrl": "urn:uuid:301b9196-2585-4e6f-a6af-08c209ce3c65",
      "resource": {
        "resourceType": "Observation",
        "id": "301b9196-2585-4e6f-a6af-08c209ce3c65",
        "meta": {
          "profile": [
            "http://hl7.eu/fhir/laboratory/StructureDefinition/Observation-resultslab-eu-lab"
          ]
        },
        "performer": [
          {
            "display": "The Central European Lab"
          }
        ],
        "category": [
          {
            "coding": [
              {
                "system": "http://terminology.hl7.org/CodeSystem/observation-category",
                "code": "laboratory"
              }
            ]
          }
        ],
        "code": {
          "coding": [
            {
              "code": "4548-4",
              "system": "http://loinc.org",
              "display": "Hemoglobin A1c/Hemoglobin.total in Blood"
            }
          ],
          "text": "Hemoglobin A1c/Hemoglobin.total in Blood"
        },
        "valueQuantity": {
          "system": "http://unitsofmeasure.org",
          "value": 6,
          "unit": "%",
          "code": "%"
        },
        "referenceRange": [
          {
            "low": {
              "value": 4.5,
              "code": "%",
              "system": "http://unitsofmeasure.org"
            }
          },
          {
            "high": {
              "value": 6.4,
              "code": "%",
              "system": "http://unitsofmeasure.org"
            }
          }
        ],
        "text": {
          "status": "generated",
          "div": "<div xmlns=\"http://www.w3.org/1999/xhtml\"><table class=\"hl7__eu__lab__report\"><tr><th>Test</th><th>08-Apr-2025</th><th>Reference&#xA0;Range</th><th>Unit</th></tr><tr><td>Hemoglobin A1c/Hemoglobin.total in Blood</td><td>6.0</td><td>4.5 - 6.4</td><td></td><td>%</td></tr></table></div>"
        },
        "status": "final",
        "subject": {
          "reference": "urn:uuid:83f497ae-4229-473a-8a03-b5c9eb803d4c",
          "display": "Ruben Koch II"
        },
        "effectiveDateTime": "2025-04-08T08:01:18Z"
      }
    },
    {
      "fullUrl": "urn:uuid:550014fe-5f62-408e-ae4e-4b4b16691e16",
      "resource": {
        "resourceType": "Observation",
        "id": "550014fe-5f62-408e-ae4e-4b4b16691e16",
        "meta": {
          "profile": [
            "http://hl7.eu/fhir/laboratory/StructureDefinition/Observation-resultslab-eu-lab"
          ]
        },
        "performer": [
          {
            "display": "The Central European Lab"
          }
        ],
        "category": [
          {
            "coding": [
              {
                "system": "http://terminology.hl7.org/CodeSystem/observation-category",
                "code": "laboratory"
              }
            ]
          }
        ],
        "code": {
          "coding": [
            {
              "code": "2339-0",
              "system": "http://loinc.org",
              "display": "Glucose [Mass/volume] in Blood"
            }
          ],
          "text": "Glucose [Mass/volume] in Blood"
        },
        "valueQuantity": {
          "system": "http://unitsofmeasure.org",
          "value": 93.5,
          "unit": "mg/dL",
          "code": "mg/dL"
        },
        "referenceRange": [
          {
            "low": {
              "value": 70,
              "code": "mg/dL",
              "system": "http://unitsofmeasure.org"
            }
          },
          {
            "high": {
              "value": 140,
              "code": "mg/dL",
              "system": "http://unitsofmeasure.org"
            }
          }
        ],
        "text": {
          "status": "generated",
          "div": "<div xmlns=\"http://www.w3.org/1999/xhtml\"><table class=\"hl7__eu__lab__report\"><tr><th>Test</th><th>08-Apr-2025</th><th>Reference&#xA0;Range</th><th>Unit</th></tr><tr><td>Glucose [Mass/volume] in Blood</td><td>93.5</td><td>70 - 140</td><td></td><td>mg/dL</td></tr></table></div>"
        },
        "status": "final",
        "subject": {
          "reference": "urn:uuid:83f497ae-4229-473a-8a03-b5c9eb803d4c",
          "display": "Ruben Koch II"
        },
        "effectiveDateTime": "2025-04-08T08:01:18Z"
      }
    },
    {
      "fullUrl": "urn:uuid:3d84d1fb-c502-422d-ba9a-05221d34cf77",
      "resource": {
        "resourceType": "Observation",
        "id": "3d84d1fb-c502-422d-ba9a-05221d34cf77",
        "meta": {
          "profile": [
            "http://hl7.eu/fhir/laboratory/StructureDefinition/Observation-resultslab-eu-lab"
          ]
        },
        "performer": [
          {
            "display": "The Central European Lab"
          }
        ],
        "category": [
          {
            "coding": [
              {
                "system": "http://terminology.hl7.org/CodeSystem/observation-category",
                "code": "laboratory"
              }
            ]
          }
        ],
        "code": {
          "coding": [
            {
              "code": "6299-2",
              "system": "http://loinc.org",
              "display": "Urea nitrogen [Mass/volume] in Blood"
            }
          ],
          "text": "Urea nitrogen [Mass/volume] in Blood"
        },
        "valueQuantity": {
          "system": "http://unitsofmeasure.org",
          "value": 16,
          "unit": "mg/dL",
          "code": "mg/dL"
        },
        "referenceRange": [
          {
            "low": {
              "value": 7,
              "code": "mg/dL",
              "system": "http://unitsofmeasure.org"
            }
          },
          {
            "high": {
              "value": 20,
              "code": "mg/dL",
              "system": "http://unitsofmeasure.org"
            }
          }
        ],
        "text": {
          "status": "generated",
          "div": "<div xmlns=\"http://www.w3.org/1999/xhtml\"><table class=\"hl7__eu__lab__report\"><tr><th>Test</th><th>08-Apr-2025</th><th>Reference&#xA0;Range</th><th>Unit</th></tr><tr><td>Urea nitrogen [Mass/volume] in Blood</td><td>16.0</td><td>7 - 20</td><td></td><td>mg/dL</td></tr></table></div>"
        },
        "status": "final",
        "subject": {
          "reference": "urn:uuid:83f497ae-4229-473a-8a03-b5c9eb803d4c",
          "display": "Ruben Koch II"
        },
        "effectiveDateTime": "2025-04-08T08:01:18Z"
      }
    },
    {
      "fullUrl": "urn:uuid:c4abe895-ec7c-490f-8d92-3b6fb9c18ab2",
      "resource": {
        "resourceType": "Observation",
        "id": "c4abe895-ec7c-490f-8d92-3b6fb9c18ab2",
        "meta": {
          "profile": [
            "http://hl7.eu/fhir/laboratory/StructureDefinition/Observation-resultslab-eu-lab"
          ]
        },
        "performer": [
          {
            "display": "The Central European Lab"
          }
        ],
        "category": [
          {
            "coding": [
              {
                "system": "http://terminology.hl7.org/CodeSystem/observation-category",
                "code": "laboratory"
              }
            ]
          }
        ],
        "code": {
          "coding": [
            {
              "code": "38483-4",
              "system": "http://loinc.org",
              "display": "Creatinine [Mass/volume] in Blood"
            }
          ],
          "text": "Creatinine [Mass/volume] in Blood"
        },
        "valueQuantity": {
          "system": "http://unitsofmeasure.org",
          "value": 1.2,
          "unit": "mg/dL",
          "code": "mg/dL"
        },
        "referenceRange": [
          {
            "low": {
              "value": 0.9,
              "code": "mg/dL",
              "system": "http://unitsofmeasure.org"
            }
          },
          {
            "high": {
              "value": 1.3,
              "code": "mg/dL",
              "system": "http://unitsofmeasure.org"
            }
          }
        ],
        "text": {
          "status": "generated",
          "div": "<div xmlns=\"http://www.w3.org/1999/xhtml\"><table class=\"hl7__eu__lab__report\"><tr><th>Test</th><th>08-Apr-2025</th><th>Reference&#xA0;Range</th><th>Unit</th></tr><tr><td>Creatinine [Mass/volume] in Blood</td><td>1.2</td><td>0.9 - 1.3</td><td></td><td>mg/dL</td></tr></table></div>"
        },
        "status": "final",
        "subject": {
          "reference": "urn:uuid:83f497ae-4229-473a-8a03-b5c9eb803d4c",
          "display": "Ruben Koch II"
        },
        "effectiveDateTime": "2025-04-08T08:01:18Z"
      }
    },
    {
      "fullUrl": "urn:uuid:0a06cd0b-3c05-43c4-a537-57eeaa94b3a7",
      "resource": {
        "resourceType": "Observation",
        "id": "0a06cd0b-3c05-43c4-a537-57eeaa94b3a7",
        "meta": {
          "profile": [
            "http://hl7.eu/fhir/laboratory/StructureDefinition/Observation-resultslab-eu-lab"
          ]
        },
        "performer": [
          {
            "display": "The Central European Lab"
          }
        ],
        "category": [
          {
            "coding": [
              {
                "system": "http://terminology.hl7.org/CodeSystem/observation-category",
                "code": "laboratory"
              }
            ]
          }
        ],
        "code": {
          "coding": [
            {
              "code": "49765-1",
              "system": "http://loinc.org",
              "display": "Calcium [Mass/volume] in Blood"
            }
          ],
          "text": "Calcium [Mass/volume] in Blood"
        },
        "valueQuantity": {
          "system": "http://unitsofmeasure.org",
          "value": 9.4,
          "unit": "mg/dL",
          "code": "mg/dL"
        },
        "referenceRange": [
          {
            "low": {
              "value": 8.5,
              "code": "mg/dL",
              "system": "http://unitsofmeasure.org"
            }
          },
          {
            "high": {
              "value": 10.5,
              "code": "mg/dL",
              "system": "http://unitsofmeasure.org"
            }
          }
        ],
        "text": {
          "status": "generated",
          "div": "<div xmlns=\"http://www.w3.org/1999/xhtml\"><table class=\"hl7__eu__lab__report\"><tr><th>Test</th><th>08-Apr-2025</th><th>Reference&#xA0;Range</th><th>Unit</th></tr><tr><td>Calcium [Mass/volume] in Blood</td><td>9.4</td><td>8.5 - 10.5</td><td></td><td>mg/dL</td></tr></table></div>"
        },
        "status": "final",
        "subject": {
          "reference": "urn:uuid:83f497ae-4229-473a-8a03-b5c9eb803d4c",
          "display": "Ruben Koch II"
        },
        "effectiveDateTime": "2025-04-08T08:01:18Z"
      }
    },
    {
      "fullUrl": "urn:uuid:f6151fcd-4758-4a13-a3a6-3c72490181c1",
      "resource": {
        "resourceType": "Observation",
        "id": "f6151fcd-4758-4a13-a3a6-3c72490181c1",
        "meta": {
          "profile": [
            "http://hl7.eu/fhir/laboratory/StructureDefinition/Observation-resultslab-eu-lab"
          ]
        },
        "performer": [
          {
            "display": "The Central European Lab"
          }
        ],
        "category": [
          {
            "coding": [
              {
                "system": "http://terminology.hl7.org/CodeSystem/observation-category",
                "code": "laboratory"
              }
            ]
          }
        ],
        "code": {
          "coding": [
            {
              "code": "2947-0",
              "system": "http://loinc.org",
              "display": "Sodium [Moles/volume] in Blood"
            }
          ],
          "text": "Sodium [Moles/volume] in Blood"
        },
        "valueQuantity": {
          "system": "http://unitsofmeasure.org",
          "value": 143.8,
          "unit": "mmol/L",
          "code": "mmol/L"
        },
        "referenceRange": [
          {
            "low": {
              "value": 135,
              "code": "mmol/L",
              "system": "http://unitsofmeasure.org"
            }
          },
          {
            "high": {
              "value": 145,
              "code": "mmol/L",
              "system": "http://unitsofmeasure.org"
            }
          }
        ],
        "text": {
          "status": "generated",
          "div": "<div xmlns=\"http://www.w3.org/1999/xhtml\"><table class=\"hl7__eu__lab__report\"><tr><th>Test</th><th>08-Apr-2025</th><th>Reference&#xA0;Range</th><th>Unit</th></tr><tr><td>Sodium [Moles/volume] in Blood</td><td>143.8</td><td>135 - 145</td><td></td><td>mmol/L</td></tr></table></div>"
        },
        "status": "final",
        "subject": {
          "reference": "urn:uuid:83f497ae-4229-473a-8a03-b5c9eb803d4c",
          "display": "Ruben Koch II"
        },
        "effectiveDateTime": "2025-04-08T08:01:18Z"
      }
    },
    {
      "fullUrl": "urn:uuid:85a6f1d9-1a54-4761-9670-31f1fff28aac",
      "resource": {
        "resourceType": "Observation",
        "id": "85a6f1d9-1a54-4761-9670-31f1fff28aac",
        "meta": {
          "profile": [
            "http://hl7.eu/fhir/laboratory/StructureDefinition/Observation-resultslab-eu-lab"
          ]
        },
        "performer": [
          {
            "display": "The Central European Lab"
          }
        ],
        "category": [
          {
            "coding": [
              {
                "system": "http://terminology.hl7.org/CodeSystem/observation-category",
                "code": "laboratory"
              }
            ]
          }
        ],
        "code": {
          "coding": [
            {
              "code": "6298-4",
              "system": "http://loinc.org",
              "display": "Potassium [Moles/volume] in Blood"
            }
          ],
          "text": "Potassium [Moles/volume] in Blood"
        },
        "valueQuantity": {
          "system": "http://unitsofmeasure.org",
          "value": 5.2,
          "unit": "mmol/L",
          "code": "mmol/L"
        },
        "referenceRange": [
          {
            "low": {
              "value": 3.5,
              "code": "mmol/L",
              "system": "http://unitsofmeasure.org"
            }
          },
          {
            "high": {
              "value": 5,
              "code": "mmol/L",
              "system": "http://unitsofmeasure.org"
            }
          }
        ],
        "interpretation": [
          {
            "coding": [
              {
                "code": "H",
                "system": "http://terminology.hl7.org/CodeSystem/v3-ObservationInterpretation",
                "display": "High"
              }
            ]
          }
        ],
        "text": {
          "status": "generated",
          "div": "<div xmlns=\"http://www.w3.org/1999/xhtml\"><table class=\"hl7__eu__lab__report\"><tr><th>Test</th><th>08-Apr-2025</th><th>Reference&#xA0;Range</th><th>Unit</th></tr><tr><td>Potassium [Moles/volume] in Blood</td><td>5.2</td><td>3.5 - 5</td><td>H</td><td>mmol/L</td></tr></table></div>"
        },
        "status": "final",
        "subject": {
          "reference": "urn:uuid:83f497ae-4229-473a-8a03-b5c9eb803d4c",
          "display": "Ruben Koch II"
        },
        "effectiveDateTime": "2025-04-08T08:01:18Z"
      }
    },
    {
      "fullUrl": "urn:uuid:50754039-b988-4be4-84d3-e11d8325ebc1",
      "resource": {
        "resourceType": "Observation",
        "id": "50754039-b988-4be4-84d3-e11d8325ebc1",
        "meta": {
          "profile": [
            "http://hl7.eu/fhir/laboratory/StructureDefinition/Observation-resultslab-eu-lab"
          ]
        },
        "performer": [
          {
            "display": "The Central European Lab"
          }
        ],
        "category": [
          {
            "coding": [
              {
                "system": "http://terminology.hl7.org/CodeSystem/observation-category",
                "code": "laboratory"
              }
            ]
          }
        ],
        "code": {
          "coding": [
            {
              "code": "2069-3",
              "system": "http://loinc.org",
              "display": "Chloride [Moles/volume] in Blood"
            }
          ],
          "text": "Chloride [Moles/volume] in Blood"
        },
        "valueQuantity": {
          "system": "http://unitsofmeasure.org",
          "value": 106.5,
          "unit": "mmol/L",
          "code": "mmol/L"
        },
        "referenceRange": [
          {
            "low": {
              "value": 98,
              "code": "mmol/L",
              "system": "http://unitsofmeasure.org"
            }
          },
          {
            "high": {
              "value": 107,
              "code": "mmol/L",
              "system": "http://unitsofmeasure.org"
            }
          }
        ],
        "text": {
          "status": "generated",
          "div": "<div xmlns=\"http://www.w3.org/1999/xhtml\"><table class=\"hl7__eu__lab__report\"><tr><th>Test</th><th>08-Apr-2025</th><th>Reference&#xA0;Range</th><th>Unit</th></tr><tr><td>Chloride [Moles/volume] in Blood</td><td>106.5</td><td>98 - 107</td><td></td><td>mmol/L</td></tr></table></div>"
        },
        "status": "final",
        "subject": {
          "reference": "urn:uuid:83f497ae-4229-473a-8a03-b5c9eb803d4c",
          "display": "Ruben Koch II"
        },
        "effectiveDateTime": "2025-04-08T08:01:18Z"
      }
    },
    {
      "fullUrl": "urn:uuid:844948f5-eef2-4871-a4ac-604d3613982c",
      "resource": {
        "resourceType": "Observation",
        "id": "844948f5-eef2-4871-a4ac-604d3613982c",
        "meta": {
          "profile": [
            "http://hl7.eu/fhir/laboratory/StructureDefinition/Observation-resultslab-eu-lab"
          ]
        },
        "performer": [
          {
            "display": "The Central European Lab"
          }
        ],
        "category": [
          {
            "coding": [
              {
                "system": "http://terminology.hl7.org/CodeSystem/observation-category",
                "code": "laboratory"
              }
            ]
          }
        ],
        "code": {
          "coding": [
            {
              "code": "20565-8",
              "system": "http://loinc.org",
              "display": "Carbon dioxide, total [Moles/volume] in Blood"
            }
          ],
          "text": "Carbon dioxide, total [Moles/volume] in Blood"
        },
        "valueQuantity": {
          "system": "http://unitsofmeasure.org",
          "value": 23.3,
          "unit": "mmol/L",
          "code": "mmol/L"
        },
        "referenceRange": [
          {
            "low": {
              "value": 22,
              "code": "mmol/L",
              "system": "http://unitsofmeasure.org"
            }
          },
          {
            "high": {
              "value": 32,
              "code": "mmol/L",
              "system": "http://unitsofmeasure.org"
            }
          }
        ],
        "text": {
          "status": "generated",
          "div": "<div xmlns=\"http://www.w3.org/1999/xhtml\"><table class=\"hl7__eu__lab__report\"><tr><th>Test</th><th>08-Apr-2025</th><th>Reference&#xA0;Range</th><th>Unit</th></tr><tr><td>Carbon dioxide, total [Moles/volume] in Blood</td><td>23.3</td><td>22 - 32</td><td></td><td>mmol/L</td></tr></table></div>"
        },
        "status": "final",
        "subject": {
          "reference": "urn:uuid:83f497ae-4229-473a-8a03-b5c9eb803d4c",
          "display": "Ruben Koch II"
        },
        "effectiveDateTime": "2025-04-08T08:01:18Z"
      }
    },
    {
      "fullUrl": "urn:uuid:f023e700-7127-493b-abe8-4e21e3033d92",
      "resource": {
        "resourceType": "Observation",
        "id": "f023e700-7127-493b-abe8-4e21e3033d92",
        "meta": {
          "profile": [
            "http://hl7.eu/fhir/laboratory/StructureDefinition/Observation-resultslab-eu-lab"
          ]
        },
        "performer": [
          {
            "display": "The Central European Lab"
          }
        ],
        "category": [
          {
            "coding": [
              {
                "system": "http://terminology.hl7.org/CodeSystem/observation-category",
                "code": "laboratory"
              }
            ]
          }
        ],
        "code": {
          "coding": [
            {
              "code": "2093-3",
              "system": "http://loinc.org",
              "display": "Cholesterol [Mass/volume] in Serum or Plasma"
            }
          ],
          "text": "Cholesterol [Mass/volume] in Serum or Plasma"
        },
        "valueQuantity": {
          "system": "http://unitsofmeasure.org",
          "value": 124.8,
          "unit": "mg/dL",
          "code": "mg/dL"
        },
        "referenceRange": [
          {
            "low": {
              "value": 125,
              "code": "mg/dL",
              "system": "http://unitsofmeasure.org"
            }
          },
          {
            "high": {
              "value": 200,
              "code": "mg/dL",
              "system": "http://unitsofmeasure.org"
            }
          }
        ],
        "interpretation": [
          {
            "coding": [
              {
                "code": "L",
                "system": "http://terminology.hl7.org/CodeSystem/v3-ObservationInterpretation",
                "display": "Low"
              }
            ]
          }
        ],
        "text": {
          "status": "generated",
          "div": "<div xmlns=\"http://www.w3.org/1999/xhtml\"><table class=\"hl7__eu__lab__report\"><tr><th>Test</th><th>08-Apr-2025</th><th>Reference&#xA0;Range</th><th>Unit</th></tr><tr><td>Cholesterol [Mass/volume] in Serum or Plasma</td><td>124.8</td><td>125 - 200</td><td>L</td><td>mg/dL</td></tr></table></div>"
        },
        "status": "final",
        "subject": {
          "reference": "urn:uuid:83f497ae-4229-473a-8a03-b5c9eb803d4c",
          "display": "Ruben Koch II"
        },
        "effectiveDateTime": "2025-04-08T08:01:18Z"
      }
    },
    {
      "fullUrl": "urn:uuid:95b2c499-f872-42a4-8c2c-b5a4ff8c80dd",
      "resource": {
        "resourceType": "Observation",
        "id": "95b2c499-f872-42a4-8c2c-b5a4ff8c80dd",
        "meta": {
          "profile": [
            "http://hl7.eu/fhir/laboratory/StructureDefinition/Observation-resultslab-eu-lab"
          ]
        },
        "performer": [
          {
            "display": "The Central European Lab"
          }
        ],
        "category": [
          {
            "coding": [
              {
                "system": "http://terminology.hl7.org/CodeSystem/observation-category",
                "code": "laboratory"
              }
            ]
          }
        ],
        "code": {
          "coding": [
            {
              "code": "2571-8",
              "system": "http://loinc.org",
              "display": "Triglyceride [Mass/volume] in Serum or Plasma"
            }
          ],
          "text": "Triglyceride [Mass/volume] in Serum or Plasma"
        },
        "valueQuantity": {
          "system": "http://unitsofmeasure.org",
          "value": 114.2,
          "unit": "mg/dL",
          "code": "mg/dL"
        },
        "referenceRange": [
          {
            "low": {
              "value": 40,
              "code": "mg/dL",
              "system": "http://unitsofmeasure.org"
            }
          },
          {
            "high": {
              "value": 150,
              "code": "mg/dL",
              "system": "http://unitsofmeasure.org"
            }
          }
        ],
        "text": {
          "status": "generated",
          "div": "<div xmlns=\"http://www.w3.org/1999/xhtml\"><table class=\"hl7__eu__lab__report\"><tr><th>Test</th><th>08-Apr-2025</th><th>Reference&#xA0;Range</th><th>Unit</th></tr><tr><td>Triglyceride [Mass/volume] in Serum or Plasma</td><td>114.2</td><td>40 - 150</td><td></td><td>mg/dL</td></tr></table></div>"
        },
        "status": "final",
        "subject": {
          "reference": "urn:uuid:83f497ae-4229-473a-8a03-b5c9eb803d4c",
          "display": "Ruben Koch II"
        },
        "effectiveDateTime": "2025-04-08T08:01:18Z"
      }
    },
    {
      "fullUrl": "urn:uuid:3e1505c8-f4ec-40ce-b367-85fd3c2a6344",
      "resource": {
        "resourceType": "Observation",
        "id": "3e1505c8-f4ec-40ce-b367-85fd3c2a6344",
        "meta": {
          "profile": [
            "http://hl7.eu/fhir/laboratory/StructureDefinition/Observation-resultslab-eu-lab"
          ]
        },
        "performer": [
          {
            "display": "The Central European Lab"
          }
        ],
        "category": [
          {
            "coding": [
              {
                "system": "http://terminology.hl7.org/CodeSystem/observation-category",
                "code": "laboratory"
              }
            ]
          }
        ],
        "code": {
          "coding": [
            {
              "code": "18262-6",
              "system": "http://loinc.org",
              "display": "Cholesterol in LDL [Mass/volume] in Serum or Plasma by Direct assay"
            }
          ],
          "text": "Cholesterol in LDL [Mass/volume] in Serum or Plasma by Direct assay"
        },
        "valueQuantity": {
          "system": "http://unitsofmeasure.org",
          "value": 70.5,
          "unit": "mg/dL",
          "code": "mg/dL"
        },
        "referenceRange": [
          {
            "low": {
              "value": 0,
              "code": "mg/dL",
              "system": "http://unitsofmeasure.org"
            }
          },
          {
            "high": {
              "value": 130,
              "code": "mg/dL",
              "system": "http://unitsofmeasure.org"
            }
          }
        ],
        "text": {
          "status": "generated",
          "div": "<div xmlns=\"http://www.w3.org/1999/xhtml\"><table class=\"hl7__eu__lab__report\"><tr><th>Test</th><th>08-Apr-2025</th><th>Reference&#xA0;Range</th><th>Unit</th></tr><tr><td>Cholesterol in LDL [Mass/volume] in Serum or Plasma by Direct assay</td><td>70.5</td><td>0 - 130</td><td></td><td>mg/dL</td></tr></table></div>"
        },
        "status": "final",
        "subject": {
          "reference": "urn:uuid:83f497ae-4229-473a-8a03-b5c9eb803d4c",
          "display": "Ruben Koch II"
        },
        "effectiveDateTime": "2025-04-08T08:01:18Z"
      }
    },
    {
      "fullUrl": "urn:uuid:939e2d3b-337e-4db3-8e22-30ecf303afdb",
      "resource": {
        "resourceType": "Observation",
        "id": "939e2d3b-337e-4db3-8e22-30ecf303afdb",
        "meta": {
          "profile": [
            "http://hl7.eu/fhir/laboratory/StructureDefinition/Observation-resultslab-eu-lab"
          ]
        },
        "performer": [
          {
            "display": "The Central European Lab"
          }
        ],
        "category": [
          {
            "coding": [
              {
                "system": "http://terminology.hl7.org/CodeSystem/observation-category",
                "code": "laboratory"
              }
            ]
          }
        ],
        "code": {
          "coding": [
            {
              "code": "2085-9",
              "system": "http://loinc.org",
              "display": "Cholesterol in HDL [Mass/volume] in Serum or Plasma"
            }
          ],
          "text": "Cholesterol in HDL [Mass/volume] in Serum or Plasma"
        },
        "valueQuantity": {
          "system": "http://unitsofmeasure.org",
          "value": 31.5,
          "unit": "mg/dL",
          "code": "mg/dL"
        },
        "referenceRange": [
          {
            "low": {
              "value": 40,
              "code": "mg/dL",
              "system": "http://unitsofmeasure.org"
            }
          },
          {
            "high": {
              "value": 60,
              "code": "mg/dL",
              "system": "http://unitsofmeasure.org"
            }
          }
        ],
        "interpretation": [
          {
            "coding": [
              {
                "code": "L",
                "system": "http://terminology.hl7.org/CodeSystem/v3-ObservationInterpretation",
                "display": "Low"
              }
            ]
          }
        ],
        "text": {
          "status": "generated",
          "div": "<div xmlns=\"http://www.w3.org/1999/xhtml\"><table class=\"hl7__eu__lab__report\"><tr><th>Test</th><th>08-Apr-2025</th><th>Reference&#xA0;Range</th><th>Unit</th></tr><tr><td>Cholesterol in HDL [Mass/volume] in Serum or Plasma</td><td>31.5</td><td>40 - 60</td><td>L</td><td>mg/dL</td></tr></table></div>"
        },
        "status": "final",
        "subject": {
          "reference": "urn:uuid:83f497ae-4229-473a-8a03-b5c9eb803d4c",
          "display": "Ruben Koch II"
        },
        "effectiveDateTime": "2025-04-08T08:01:18Z"
      }
    },
    {
      "fullUrl": "urn:uuid:052661d9-4dd9-45f4-b7e8-5403c8bbf7ca",
      "resource": {
        "resourceType": "Observation",
        "id": "052661d9-4dd9-45f4-b7e8-5403c8bbf7ca",
        "meta": {
          "profile": [
            "http://hl7.eu/fhir/laboratory/StructureDefinition/Observation-resultslab-eu-lab"
          ]
        },
        "performer": [
          {
            "display": "The Central European Lab"
          }
        ],
        "category": [
          {
            "coding": [
              {
                "system": "http://terminology.hl7.org/CodeSystem/observation-category",
                "code": "laboratory"
              }
            ]
          }
        ],
        "code": {
          "coding": [
            {
              "code": "14959-1",
              "system": "http://loinc.org",
              "display": "Microalbumin/Creatinine [Mass Ratio] in Urine"
            }
          ],
          "text": "Microalbumin/Creatinine [Mass Ratio] in Urine"
        },
        "valueQuantity": {
          "system": "http://unitsofmeasure.org",
          "value": 15.6,
          "unit": "mg/g",
          "code": "mg/g"
        },
        "referenceRange": [
          {
            "low": {
              "value": 0,
              "code": "mg/g",
              "system": "http://unitsofmeasure.org"
            }
          },
          {
            "high": {
              "value": 30,
              "code": "mg/g",
              "system": "http://unitsofmeasure.org"
            }
          }
        ],
        "text": {
          "status": "generated",
          "div": "<div xmlns=\"http://www.w3.org/1999/xhtml\"><table class=\"hl7__eu__lab__report\"><tr><th>Test</th><th>08-Apr-2025</th><th>Reference&#xA0;Range</th><th>Unit</th></tr><tr><td>Microalbumin/Creatinine [Mass Ratio] in Urine</td><td>15.6</td><td>0 - 30</td><td></td><td>mg/g</td></tr></table></div>"
        },
        "status": "final",
        "subject": {
          "reference": "urn:uuid:83f497ae-4229-473a-8a03-b5c9eb803d4c",
          "display": "Ruben Koch II"
        },
        "effectiveDateTime": "2025-04-08T08:01:18Z"
      }
    },
    {
      "fullUrl": "urn:uuid:523e4962-3340-49a0-82e0-a3716856830d",
      "resource": {
        "resourceType": "DeviceUseStatement",
        "id": "523e4962-3340-49a0-82e0-a3716856830d",
        "meta": {
          "profile": [
            "http://hl7.eu/fhir/eps/StructureDefinition/deviceUseStatement-eu-eps"
          ]
        },
        "timingPeriod": {
          "start": "2020-01-14"
        },
        "text": {
          "status": "generated",
          "div": "<div xmlns=\"http://www.w3.org/1999/xhtml\"><table class=\"hl7__ips\"><tr><td>Blood glucose meter (physical object)</td><td><span class=\"nb\">14-Jan-2020</span></td></tr></table></div>"
        },
        "status": "active",
        "device": {
          "reference": "urn:uuid:534e4c24-3b11-4cde-9806-eb9bbc4cf1a1",
          "display": "Blood glucose meter (physical object)"
        },
        "subject": {
          "reference": "urn:uuid:83f497ae-4229-473a-8a03-b5c9eb803d4c",
          "display": "Ruben Koch II"
        }
      }
    },
    {
      "fullUrl": "urn:uuid:534e4c24-3b11-4cde-9806-eb9bbc4cf1a1",
      "resource": {
        "resourceType": "Device",
        "id": "534e4c24-3b11-4cde-9806-eb9bbc4cf1a1",
        "meta": {
          "profile": [
            "http://hl7.eu/fhir/eps/StructureDefinition/device-eu-eps"
          ]
        },
        "udiCarrier": [
          {
            "id": "(01)68124817214544(11)191224(17)450107(10)3016577(21)85871918988387892"
          }
        ],
        "status": "active",
        "patient": {
          "reference": "urn:uuid:83f497ae-4229-473a-8a03-b5c9eb803d4c",
          "display": "Ruben Koch II"
        },
        "type": {
          "coding": [
            {
              "code": "337414009",
              "system": "http://snomed.info/sct",
              "display": "Blood glucose meter (physical object)"
            }
          ]
        }
      }
    },
    {
      "fullUrl": "urn:uuid:7faa46a2-c896-4dbc-b7ec-2a68339e912c",
      "resource": {
        "resourceType": "Device",
        "id": "7faa46a2-c896-4dbc-b7ec-2a68339e912c",
        "deviceName": [
          {
            "name": "SYNDERAI Synthetic Generator",
            "type": "manufacturer-name"
          }
        ],
        "version": [
          {
            "value": "5.0"
          }
        ],
        "text": {
          "status": "generated",
          "div": "<div xmlns=\"http://www.w3.org/1999/xhtml\">SYNDERAI Synthetic Generator v5.0</div>"
        },
        "status": "active",
        "distinctIdentifier": "synderai-generator-50",
        "manufacturer": "SYNDERAI Project"
      }
    },
    {
      "fullUrl": "urn:uuid:0b7b82e9-d815-4f5d-a0bc-6f29bd8c8b32",
      "resource": {
        "resourceType": "Provenance",
        "id": "0b7b82e9-d815-4f5d-a0bc-6f29bd8c8b32",
        "target": [
          {
            "reference": "Patient/83f497ae-4229-473a-8a03-b5c9eb803d4c"
          },
          {
            "reference": "Bundle/dd5a8851-2232-47d4-970b-d1583e130979"
          },
          {
            "reference": "Composition/55a7d00a-bbdf-48d3-bf25-ce56f055ec04"
          },
          {
            "reference": "PractitionerRole/3022f7e8-4a20-4d2a-a59c-c162fa842535"
          },
          {
            "reference": "Organization/cf5b19f3-0159-4a09-b5c2-d3ee255218fd"
          },
          {
            "reference": "Practitioner/f6735f6e-1b0a-4f46-b2ea-6a7950a6a3de"
          }
        ],
        "activity": {
          "text": "Synthetic Example Data Generation"
        },
        "policy": [
          "https://synderai.net/synderai-synthetic-data-policy"
        ],
        "agent": [
          {
            "type": {
              "text": "author"
            },
            "who": {
              "reference": "Device/7faa46a2-c896-4dbc-b7ec-2a68339e912c"
            }
          }
        ],
        "reason": [
          {
            "text": "Interoperability Testing and Training (non-clinical use)"
          }
        ],
        "text": {
          "status": "generated",
          "div": "<div xmlns=\"http://www.w3.org/1999/xhtml\">Provenance for SYNDERAI Synthetic Example Data Resource</div>"
        },
        "recorded": "2025-04-08T08:01:18Z"
      }
    }
  ],
  "type": "document",
  "timestamp": "2025-04-08T08:01:18Z"
}
