{
  "resourceType": "Bundle",
  "id": "1a1301a9-2586-4608-9c60-47948857d2be",
  "meta": {
    "profile": [
      "http://hl7.eu/fhir/eps/StructureDefinition/bundle-eu-eps"
    ]
  },
  "identifier": {
    "assigner": {
      "display": "HL7 Europe"
    },
    "system": "urn:oid:2.16.840.1.113883.2.51.999",
    "value": "231d9522-0ca3-4261-a354-95662e7f305a"
  },
  "entry": [
    {
      "fullUrl": "urn:uuid:72ab101d-47f7-4916-8cdb-0c0c41eae057",
      "resource": {
        "resourceType": "Composition",
        "id": "72ab101d-47f7-4916-8cdb-0c0c41eae057",
        "meta": {
          "security": [
            {
              "system": "http://terminology.hl7.org/CodeSystem/v3-ActReason",
              "code": "HTEST"
            },
            {
              "system": "http://terminology.hl7.org/CodeSystem/v3-ActReason",
              "code": "TRAIN"
            }
          ],
          "tag": [
            {
              "system": "https://synderai.net/fhir/CodeSystem/tags",
              "code": "synthetic",
              "display": "SYNDERAI Synthetic data"
            }
          ],
          "profile": [
            "http://hl7.eu/fhir/eps/StructureDefinition/composition-eu-eps"
          ]
        },
        "identifier": {
          "assigner": {
            "display": "HL7 Europe"
          },
          "system": "urn:oid:2.16.840.1.113883.2.51.999",
          "value": "1947fb08-195b-4b3e-89b5-951ab7d7a5b9"
        },
        "type": {
          "coding": [
            {
              "code": "60591-5",
              "system": "http://loinc.org",
              "display": "Patient summary Document"
            }
          ],
          "text": "Patient summary Document"
        },
        "author": [
          {
            "reference": "urn:uuid:d0a1f960-01a3-4f0c-8548-406734bd1c39"
          }
        ],
        "section": [
          {
            "text": {
              "status": "generated",
              "div": "<div xmlns=\"http://www.w3.org/1999/xhtml\"><table class=\"hl7__ips\"><tr><th>Condition</th><th>Onset Date</th><th>Status</th></tr><tr><td>Prediabetes</td><td><span class=\"nb\">23-Nov-1995</span></td><td>active</td></tr><tr><td>Anemia</td><td><span class=\"nb\">23-Nov-1995</span></td><td>active</td></tr></table></div>"
            },
            "entry": [
              {
                "reference": "urn:uuid:5de96365-78d2-43e6-916e-2ca657befce8"
              }
            ],
            "code": {
              "coding": [
                {
                  "system": "http://loinc.org",
                  "code": "11450-4",
                  "display": "Problem list - Reported"
                }
              ]
            },
            "title": "Problem list"
          },
          {
            "text": {
              "status": "generated",
              "div": "<div xmlns=\"http://www.w3.org/1999/xhtml\"><table class=\"hl7__ips\"><tr><td>No known medications</td></tr></table></div>"
            },
            "entry": [
              {
                "reference": "urn:uuid:3c8dd7a1-3ba1-403e-ac41-47c1111f6ab9"
              }
            ],
            "code": {
              "coding": [
                {
                  "system": "http://loinc.org",
                  "code": "10160-0",
                  "display": "History of Medication use Narrative"
                }
              ]
            },
            "title": "Medication list"
          },
          {
            "text": {
              "status": "generated",
              "div": "<div xmlns=\"http://www.w3.org/1999/xhtml\"><table class=\"hl7__ips\"><tr><th>Vaccine</th><th>Date</th></tr><tr><td>Influenza virus antigen only vaccine product</td><td><span class=\"nb\">09-Oct-2024</span></td></tr><tr><td>Clostridium tetani toxoid antigen adsorbed only vaccine product</td><td><span class=\"nb\">22-Sep-2021</span></td></tr><tr><td>Live attenuated Human alphaherpesvirus 3 only vaccine product</td><td><span class=\"nb\">22-Sep-2021</span></td></tr><tr><td>COVID-19 non-replicating viral vector vaccine</td><td><span class=\"nb\">08-Sep-2021</span></td></tr></table></div>"
            },
            "entry": [
              {
                "reference": "urn:uuid:326c9449-470d-47bb-90ca-cae118aa359a"
              }
            ],
            "code": {
              "coding": [
                {
                  "system": "http://loinc.org",
                  "code": "11369-6",
                  "display": "History of Immunization note"
                }
              ]
            },
            "title": "Immunizations list"
          },
          {
            "text": {
              "status": "generated",
              "div": "<div xmlns=\"http://www.w3.org/1999/xhtml\"><table class=\"hl7__ips\"><tr><th>Allergy/Intolerance</th><th>Onset Date</th><th>Status</th><th>Type</th><th>Reaction</th></tr><tr><td>Vaccine product containing recombinant viral vector encoding SARS-CoV-2 spike protein</td><td>?</td><td>active</td><td>?</td><td></td></tr></table></div>"
            },
            "entry": [
              {
                "reference": "urn:uuid:20bbdf26-adbe-4123-87f7-d12eccd2a955"
              }
            ],
            "code": {
              "coding": [
                {
                  "system": "http://loinc.org",
                  "code": "48765-2",
                  "display": "Allergies and adverse reactions Document"
                }
              ]
            },
            "title": "Allergies and Intolerances"
          },
          {
            "text": {
              "status": "generated",
              "div": "<div xmlns=\"http://www.w3.org/1999/xhtml\"><table class=\"hl7__ips\"><tr><th>Active Planned Care / Goals</th><th>Start Date</th><th>Reason</th></tr><tr><td>Diabetes self management plan</td><td><span class=\"nb\">23-Nov-1995</span></td><td>Prediabetes</td></tr><tr><td><ul><li>Patient will implement and maintain a diabetes self-management plan including dietary changes, increased physical activity, and regular blood glucose monitoring to reduce risk of progression to diabetes.</li></ul></td><td></td><td></td></tr></table></div>"
            },
            "title": "Care Plan",
            "code": {
              "coding": [
                {
                  "code": "18776-5",
                  "system": "http://loinc.org",
                  "display": "Plan of care note"
                }
              ]
            }
          },
          {
            "text": {
              "status": "generated",
              "div": "<div xmlns=\"http://www.w3.org/1999/xhtml\"><table class=\"hl7__ips\"><tr><th>Vital Signs</th><th>2024-10-09</th><th>2023-10-04</th></tr><tr><td>Body Height</td><td>168.4 cm</td><td>168.4 cm</td></tr><tr><td>Pain severity - 0-10 verbal numeric rating [Score] - Reported</td><td>2 {score}</td><td>1 {score}</td></tr><tr><td>Body Weight</td><td>85.6 kg</td><td>85.4 kg</td></tr><tr><td>Body mass index (BMI) [Ratio]</td><td>30.2 kg/m2</td><td>30.1 kg/m2</td></tr><tr><td>Diastolic Blood Pressure</td><td>83 mm[Hg]</td><td>82 mm[Hg]</td></tr><tr><td>Systolic Blood Pressure</td><td>93 mm[Hg]</td><td>87 mm[Hg]</td></tr><tr><td>Heart rate</td><td>91 /min</td><td>81 /min</td></tr><tr><td>Respiratory rate</td><td>12 /min</td><td>13 /min</td></tr></table></div>"
            },
            "entry": [
              {
                "reference": "urn:uuid:81f617b8-979a-4b41-ba34-19cb5eadc55c"
              }
            ],
            "code": {
              "coding": [
                {
                  "system": "http://loinc.org",
                  "code": "8716-3",
                  "display": "Vital signs note"
                }
              ]
            },
            "title": "Vital Signs"
          },
          {
            "text": {
              "status": "generated",
              "div": "<div xmlns=\"http://www.w3.org/1999/xhtml\"><table class=\"hl7__ips\"><table class=\"hl7__ips\"><thead><tr><th>Recent Lab Observations</th><th>10-OCT-2024</th><th>Reference&#xA0;Range</th><th>Unit</th></tr></thead><tbody><tr><td>Hemoglobin A1c/Hemoglobin.total in Blood</td><td>6.2</td><td>4.3 - 6.4</td><td>%</td></tr><tr><td>Glucose [Mass/volume] in Blood</td><td>88.0</td><td>70 - 140</td><td>mg/dL</td></tr><tr><td>Urea nitrogen [Mass/volume] in Blood</td><td>7.0</td><td>7 - 20</td><td>mg/dL</td></tr><tr><td>Creatinine [Mass/volume] in Blood</td><td>1.3</td><td>0.6 - 1.3</td><td>mg/dL</td></tr><tr><td>Calcium [Mass/volume] in Blood</td><td>8.8</td><td>8.5 - 10.5</td><td>mg/dL</td></tr><tr><td>Sodium [Moles/volume] in Blood</td><td>143.3</td><td>135 - 145</td><td>mmol/L</td></tr><tr><td>Potassium [Moles/volume] in Blood</td><td>4.7</td><td>3.5 - 5.3</td><td>mmol/L</td></tr><tr><td>Chloride [Moles/volume] in Blood</td><td>101.1</td><td>98 - 110</td><td>mmol/L</td></tr><tr><td>Carbon dioxide, total [Moles/volume] in Blood</td><td><strong>21.4 L</strong></td><td>22 - 29</td><td>mmol/L</td></tr></tbody></table></table></div>"
            },
            "title": "Relevant diagnostic tests/laboratory data",
            "code": {
              "coding": [
                {
                  "code": "30954-2",
                  "system": "http://loinc.org",
                  "display": "Relevant diagnostic tests/laboratory data note"
                }
              ]
            }
          },
          {
            "text": {
              "status": "generated",
              "div": "<div xmlns=\"http://www.w3.org/1999/xhtml\"><table class=\"hl7__ips\"><tr><th>Device</th><th>Date (since)</th></tr><tr><td>Blood glucose meter (physical object)</td><td><span class=\"nb\">22-Nov-1995</span></td></tr></table></div>"
            },
            "entry": [
              {
                "reference": "urn:uuid:f9da12c0-60f0-49c1-adc8-819b5be89e88"
              }
            ],
            "code": {
              "coding": [
                {
                  "system": "http://loinc.org",
                  "code": "46264-8",
                  "display": "History of medical device use"
                }
              ]
            },
            "title": "Device Use"
          }
        ],
        "title": "European Patient Summary",
        "status": "final",
        "subject": {
          "reference": "urn:uuid:8499029f-70ec-4919-88a9-938d8ad56397",
          "display": "Sebastian Schmidl"
        },
        "custodian": {
          "reference": "urn:uuid:6fc2c28f-9884-4c40-a20f-f6196767533a"
        },
        "date": "2024-10-10",
        "confidentiality": "N"
      }
    },
    {
      "fullUrl": "urn:uuid:8499029f-70ec-4919-88a9-938d8ad56397",
      "resource": {
        "resourceType": "Patient",
        "id": "8499029f-70ec-4919-88a9-938d8ad56397",
        "meta": {
          "security": [
            {
              "system": "http://terminology.hl7.org/CodeSystem/v3-ActReason",
              "code": "HTEST"
            },
            {
              "system": "http://terminology.hl7.org/CodeSystem/v3-ActReason",
              "code": "TRAIN"
            }
          ],
          "tag": [
            {
              "system": "https://synderai.net/fhir/CodeSystem/tags",
              "code": "synthetic",
              "display": "SYNDERAI Synthetic data"
            }
          ],
          "profile": [
            "http://hl7.eu/fhir/eps/StructureDefinition/patient-eu-eps"
          ]
        },
        "identifier": [
          {
            "type": {
              "coding": [
                {
                  "code": "PT",
                  "system": "http://terminology.hl7.org/CodeSystem/v2-0203"
                }
              ]
            },
            "system": "http://ec.europa.eu/identifier/eci",
            "value": "4625-445892-3"
          },
          {
            "type": {
              "coding": [
                {
                  "code": "MR",
                  "system": "http://terminology.hl7.org/CodeSystem/v2-0203"
                }
              ]
            },
            "system": "http://local.setting.eu/identifier",
            "value": "75a8a7f3-8f32-818f-2c14-42baf85ba9f9"
          }
        ],
        "name": [
          {
            "given": [
              "Sebastian"
            ],
            "family": "Schmidl",
            "text": "Sebastian Schmidl"
          }
        ],
        "address": [
          {
            "line": [
              "Annabell-Ostermann-Ring 408"
            ],
            "use": "home",
            "type": "physical",
            "postalCode": "9433",
            "city": "Sankt Andrä im Lavanttal",
            "country": "Austria"
          }
        ],
        "telecom": [
          {
            "system": "phone",
            "value": "+43 7312 72221 120"
          }
        ],
        "extension": [
          {
            "url": "http://hl7.org/fhir/StructureDefinition/patient-nationality",
            "valueCodeableConcept": {
              "coding": [
                {
                  "code": "AT",
                  "system": "http://hl7.org/fhir/ValueSet/country"
                }
              ]
            }
          }
        ],
        "text": {
          "status": "generated",
          "div": "<div xmlns=\"http://www.w3.org/1999/xhtml\"><table class=\"hl7__ips\"><tr><td>Sebastian Schmidl</td><td>male</td><td>10-May-1974</td></tr></table></div>"
        },
        "gender": "male",
        "birthDate": "1974-05-10"
      }
    },
    {
      "fullUrl": "urn:uuid:d0a1f960-01a3-4f0c-8548-406734bd1c39",
      "resource": {
        "resourceType": "PractitionerRole",
        "id": "d0a1f960-01a3-4f0c-8548-406734bd1c39",
        "meta": {
          "profile": [
            "http://hl7.eu/fhir/base/StructureDefinition/practitionerRole-eu"
          ]
        },
        "text": {
          "status": "generated",
          "div": "<div xmlns=\"http://www.w3.org/1999/xhtml\"><table class=\"hl7__ips\">Provider Role Id d0a1f960-01a3-4f0c-8548-406734bd1c39</table></div>"
        },
        "practitioner": {
          "reference": "urn:uuid:9645ff9f-5759-4e50-b3e6-e4924cfe16e6"
        },
        "organization": {
          "reference": "urn:uuid:6fc2c28f-9884-4c40-a20f-f6196767533a"
        }
      }
    },
    {
      "fullUrl": "urn:uuid:6fc2c28f-9884-4c40-a20f-f6196767533a",
      "resource": {
        "resourceType": "Organization",
        "id": "6fc2c28f-9884-4c40-a20f-f6196767533a",
        "meta": {
          "profile": [
            "http://hl7.eu/fhir/base/StructureDefinition/organization-eu"
          ]
        },
        "identifier": [
          {
            "assigner": {
              "display": "HL7 Europe"
            },
            "system": "urn:oid:2.16.840.1.113883.2.51.999",
            "value": "4761242b-9371-410e-ad3d-4ad7cf064e71"
          }
        ],
        "address": [
          {
            "line": [
              "Paul-Hackhofer-Straße 9"
            ],
            "city": "Wolfsberg",
            "postalCode": "9400",
            "country": "Austria"
          }
        ],
        "text": {
          "status": "generated",
          "div": "<div xmlns=\"http://www.w3.org/1999/xhtml\"><table class=\"hl7__ips\">Landeskrankenhaus Wolfsberg</table></div>"
        },
        "name": "Landeskrankenhaus Wolfsberg"
      }
    },
    {
      "fullUrl": "urn:uuid:9645ff9f-5759-4e50-b3e6-e4924cfe16e6",
      "resource": {
        "resourceType": "Practitioner",
        "id": "9645ff9f-5759-4e50-b3e6-e4924cfe16e6",
        "meta": {
          "profile": [
            "http://hl7.eu/fhir/base/StructureDefinition/practitioner-eu"
          ]
        },
        "name": [
          {
            "prefix": [
              "Dr."
            ],
            "given": [
              "Hel"
            ],
            "family": "Ping"
          }
        ],
        "text": {
          "status": "generated",
          "div": "<div xmlns=\"http://www.w3.org/1999/xhtml\"><table class=\"hl7__ips\">Dr. Hel Ping</table></div>"
        }
      }
    },
    {
      "fullUrl": "urn:uuid:5de96365-78d2-43e6-916e-2ca657befce8",
      "resource": {
        "resourceType": "Condition",
        "id": "5de96365-78d2-43e6-916e-2ca657befce8",
        "meta": {
          "profile": [
            "http://hl7.org/fhir/uv/ips/StructureDefinition/Condition-uv-ips"
          ]
        },
        "category": [
          {
            "coding": [
              {
                "code": "problem-list-item",
                "system": "http://terminology.hl7.org/CodeSystem/condition-category",
                "display": "Problem List Item"
              }
            ]
          }
        ],
        "code": {
          "coding": [
            {
              "code": "15777000",
              "system": "http://snomed.info/sct",
              "display": "Prediabetes (disorder)"
            }
          ],
          "text": "Prediabetes"
        },
        "text": {
          "status": "generated",
          "div": "<div xmlns=\"http://www.w3.org/1999/xhtml\"><table class=\"hl7__ips\"><tr><td>Prediabetes</td><td><span class=\"nb\">23-Nov-1995</span></td><td>active</td></tr></table></div>"
        },
        "onsetDateTime": "1995-11-23",
        "subject": {
          "reference": "urn:uuid:8499029f-70ec-4919-88a9-938d8ad56397",
          "display": "Sebastian Schmidl"
        },
        "asserter": {
          "reference": "urn:uuid:d0a1f960-01a3-4f0c-8548-406734bd1c39",
          "display": "Landeskrankenhaus Wolfsberg"
        }
      }
    },
    {
      "fullUrl": "urn:uuid:57be7317-ba30-4347-8a8d-8fb7db04acbf",
      "resource": {
        "resourceType": "Condition",
        "id": "57be7317-ba30-4347-8a8d-8fb7db04acbf",
        "meta": {
          "profile": [
            "http://hl7.org/fhir/uv/ips/StructureDefinition/Condition-uv-ips"
          ]
        },
        "category": [
          {
            "coding": [
              {
                "code": "problem-list-item",
                "system": "http://terminology.hl7.org/CodeSystem/condition-category",
                "display": "Problem List Item"
              }
            ]
          }
        ],
        "code": {
          "coding": [
            {
              "code": "271737000",
              "system": "http://snomed.info/sct",
              "display": "Anemia (disorder)"
            }
          ],
          "text": "Anemia"
        },
        "text": {
          "status": "generated",
          "div": "<div xmlns=\"http://www.w3.org/1999/xhtml\"><table class=\"hl7__ips\"><tr><td>Anemia</td><td><span class=\"nb\">23-Nov-1995</span></td><td>active</td></tr></table></div>"
        },
        "onsetDateTime": "1995-11-23",
        "subject": {
          "reference": "urn:uuid:8499029f-70ec-4919-88a9-938d8ad56397",
          "display": "Sebastian Schmidl"
        },
        "asserter": {
          "reference": "urn:uuid:d0a1f960-01a3-4f0c-8548-406734bd1c39",
          "display": "Landeskrankenhaus Wolfsberg"
        }
      }
    },
    {
      "fullUrl": "urn:uuid:de5700d6-bc5d-4852-9fd0-4e15dc2db3f7",
      "resource": {
        "resourceType": "Condition",
        "id": "de5700d6-bc5d-4852-9fd0-4e15dc2db3f7",
        "meta": {
          "profile": [
            "http://hl7.org/fhir/uv/ips/StructureDefinition/Condition-uv-ips"
          ]
        },
        "category": [
          {
            "coding": [
              {
                "code": "problem-list-item",
                "system": "http://terminology.hl7.org/CodeSystem/condition-category",
                "display": "Problem List Item"
              }
            ]
          }
        ],
        "code": {
          "coding": [
            {
              "code": "10509002",
              "system": "http://snomed.info/sct",
              "display": "Acute bronchitis (disorder)"
            }
          ],
          "text": "Acute bronchitis"
        },
        "text": {
          "status": "generated",
          "div": "<div xmlns=\"http://www.w3.org/1999/xhtml\"><table class=\"hl7__ips\"><tr><td><span class=\"grayedout\">Acute bronchitis</span></td><td><span class=\"nb\">31-Aug-2023 - 18-Sep-2023</span></td><td><span class=\"grayedout\">inactive</span></td></tr></table></div>"
        },
        "onsetDateTime": "2023-08-31",
        "abatementDateTime": "2023-09-18",
        "subject": {
          "reference": "urn:uuid:8499029f-70ec-4919-88a9-938d8ad56397",
          "display": "Sebastian Schmidl"
        },
        "asserter": {
          "reference": "urn:uuid:d0a1f960-01a3-4f0c-8548-406734bd1c39",
          "display": "Landeskrankenhaus Wolfsberg"
        }
      }
    },
    {
      "fullUrl": "urn:uuid:67b53450-66bc-4950-bb82-3ca6c9a81236",
      "resource": {
        "resourceType": "Condition",
        "id": "67b53450-66bc-4950-bb82-3ca6c9a81236",
        "meta": {
          "profile": [
            "http://hl7.org/fhir/uv/ips/StructureDefinition/Condition-uv-ips"
          ]
        },
        "category": [
          {
            "coding": [
              {
                "code": "problem-list-item",
                "system": "http://terminology.hl7.org/CodeSystem/condition-category",
                "display": "Problem List Item"
              }
            ]
          }
        ],
        "code": {
          "coding": [
            {
              "code": "195662009",
              "system": "http://snomed.info/sct",
              "display": "Acute viral pharyngitis (disorder)"
            }
          ],
          "text": "Acute viral pharyngitis"
        },
        "text": {
          "status": "generated",
          "div": "<div xmlns=\"http://www.w3.org/1999/xhtml\"><table class=\"hl7__ips\"><tr><td><span class=\"grayedout\">Acute viral pharyngitis</span></td><td><span class=\"nb\">17-Nov-2016 - 26-Nov-2016</span></td><td><span class=\"grayedout\">inactive</span></td></tr></table></div>"
        },
        "onsetDateTime": "2016-11-17",
        "abatementDateTime": "2016-11-26",
        "subject": {
          "reference": "urn:uuid:8499029f-70ec-4919-88a9-938d8ad56397",
          "display": "Sebastian Schmidl"
        },
        "asserter": {
          "reference": "urn:uuid:d0a1f960-01a3-4f0c-8548-406734bd1c39",
          "display": "Landeskrankenhaus Wolfsberg"
        }
      }
    },
    {
      "fullUrl": "urn:uuid:119850e4-3730-4423-8abb-bd12e102a6fd",
      "resource": {
        "resourceType": "Condition",
        "id": "119850e4-3730-4423-8abb-bd12e102a6fd",
        "meta": {
          "profile": [
            "http://hl7.org/fhir/uv/ips/StructureDefinition/Condition-uv-ips"
          ]
        },
        "category": [
          {
            "coding": [
              {
                "code": "problem-list-item",
                "system": "http://terminology.hl7.org/CodeSystem/condition-category",
                "display": "Problem List Item"
              }
            ]
          }
        ],
        "code": {
          "coding": [
            {
              "code": "195662009",
              "system": "http://snomed.info/sct",
              "display": "Acute viral pharyngitis (disorder)"
            }
          ],
          "text": "Acute viral pharyngitis"
        },
        "text": {
          "status": "generated",
          "div": "<div xmlns=\"http://www.w3.org/1999/xhtml\"><table class=\"hl7__ips\"><tr><td><span class=\"grayedout\">Acute viral pharyngitis</span></td><td><span class=\"nb\">10-Sep-2015 - 20-Sep-2015</span></td><td><span class=\"grayedout\">inactive</span></td></tr></table></div>"
        },
        "onsetDateTime": "2015-09-10",
        "abatementDateTime": "2015-09-20",
        "subject": {
          "reference": "urn:uuid:8499029f-70ec-4919-88a9-938d8ad56397",
          "display": "Sebastian Schmidl"
        },
        "asserter": {
          "reference": "urn:uuid:d0a1f960-01a3-4f0c-8548-406734bd1c39",
          "display": "Landeskrankenhaus Wolfsberg"
        }
      }
    },
    {
      "fullUrl": "urn:uuid:3c8dd7a1-3ba1-403e-ac41-47c1111f6ab9",
      "resource": {
        "resourceType": "MedicationStatement",
        "id": "3c8dd7a1-3ba1-403e-ac41-47c1111f6ab9",
        "meta": {
          "profile": [
            "http://hl7.eu/fhir/eps/StructureDefinition/MedicationStatement-eu-eps"
          ]
        },
        "effectivePeriod": {
          "extension": [
            {
              "url": "http://hl7.org/fhir/StructureDefinition/data-absent-reason",
              "valueCode": "unknown"
            }
          ]
        },
        "status": "active",
        "medicationCodeableConcept": {
          "coding": [
            {
              "code": "787481004",
              "system": "http://snomed.info/sct",
              "display": "No known medications (situation)"
            }
          ]
        },
        "subject": {
          "reference": "urn:uuid:8499029f-70ec-4919-88a9-938d8ad56397",
          "display": "Sebastian Schmidl"
        }
      }
    },
    {
      "fullUrl": "urn:uuid:326c9449-470d-47bb-90ca-cae118aa359a",
      "resource": {
        "resourceType": "Immunization",
        "id": "326c9449-470d-47bb-90ca-cae118aa359a",
        "meta": {
          "profile": [
            "http://hl7.org/fhir/uv/ips/StructureDefinition/Immunization-uv-ips"
          ]
        },
        "vaccineCode": {
          "coding": [
            {
              "code": "1181000221105",
              "system": "http://snomed.info/sct",
              "display": "Vaccine product containing Influenza virus antigen"
            },
            {
              "code": "J07BB02",
              "system": "http://www.whocc.no/atc",
              "display": "Influenza, inactivated, split virus"
            }
          ],
          "text": "Influenza virus antigen only vaccine product"
        },
        "site": {
          "coding": [
            {
              "code": "244979005",
              "system": "http://snomed.info/sct",
              "display": "Entire muscle of upper arm"
            }
          ],
          "text": "Entire muscle of upper arm"
        },
        "route": {
          "coding": [
            {
              "code": "78421000",
              "system": "http://snomed.info/sct",
              "display": "Intramuscular route"
            }
          ],
          "text": "Intramuscular route"
        },
        "text": {
          "status": "generated",
          "div": "<div xmlns=\"http://www.w3.org/1999/xhtml\"><table class=\"hl7__ips\"><tr><td>Influenza virus antigen only vaccine product</td><td><span class=\"nb\">09-Oct-2024</span></td></tr></table></div>"
        },
        "status": "completed",
        "patient": {
          "reference": "urn:uuid:8499029f-70ec-4919-88a9-938d8ad56397",
          "display": "Sebastian Schmidl"
        },
        "occurrenceDateTime": "2024-10-09",
        "lotNumber": "QT-nlEj",
        "expirationDate": "2025-08-11"
      }
    },
    {
      "fullUrl": "urn:uuid:dce36640-97eb-4279-9f6c-65a155986b01",
      "resource": {
        "resourceType": "Immunization",
        "id": "dce36640-97eb-4279-9f6c-65a155986b01",
        "meta": {
          "profile": [
            "http://hl7.org/fhir/uv/ips/StructureDefinition/Immunization-uv-ips"
          ]
        },
        "vaccineCode": {
          "coding": [
            {
              "code": "777725002",
              "system": "http://snomed.info/sct",
              "display": "Vaccine product containing only Clostridium tetani toxoid antigen adsorbed"
            },
            {
              "code": "J07AM51",
              "system": "http://www.whocc.no/atc",
              "display": "Diphtheria-tetanus vaccines, adult type"
            }
          ],
          "text": "Clostridium tetani toxoid antigen adsorbed only vaccine product"
        },
        "site": {
          "coding": [
            {
              "code": "244979005",
              "system": "http://snomed.info/sct",
              "display": "Entire muscle of upper arm"
            }
          ],
          "text": "Entire muscle of upper arm"
        },
        "route": {
          "coding": [
            {
              "code": "78421000",
              "system": "http://snomed.info/sct",
              "display": "Intramuscular route"
            }
          ],
          "text": "Intramuscular route"
        },
        "text": {
          "status": "generated",
          "div": "<div xmlns=\"http://www.w3.org/1999/xhtml\"><table class=\"hl7__ips\"><tr><td>Clostridium tetani toxoid antigen adsorbed only vaccine product</td><td><span class=\"nb\">22-Sep-2021</span></td></tr></table></div>"
        },
        "status": "completed",
        "patient": {
          "reference": "urn:uuid:8499029f-70ec-4919-88a9-938d8ad56397",
          "display": "Sebastian Schmidl"
        },
        "occurrenceDateTime": "2021-09-22",
        "lotNumber": "VK-BvrNaH4Qs",
        "expirationDate": "2022-07-27"
      }
    },
    {
      "fullUrl": "urn:uuid:ab4579b5-af7b-490e-9a1a-40fbd274dc29",
      "resource": {
        "resourceType": "Immunization",
        "id": "ab4579b5-af7b-490e-9a1a-40fbd274dc29",
        "meta": {
          "profile": [
            "http://hl7.org/fhir/uv/ips/StructureDefinition/Immunization-uv-ips"
          ]
        },
        "vaccineCode": {
          "coding": [
            {
              "code": "2221000221107",
              "system": "http://snomed.info/sct",
              "display": "Live attenuated Varicella-zoster vaccine"
            },
            {
              "code": "J07BK02",
              "system": "http://www.whocc.no/atc",
              "display": "Varicella-zoster vaccines"
            }
          ],
          "text": "Live attenuated Human alphaherpesvirus 3 only vaccine product"
        },
        "site": {
          "coding": [
            {
              "code": "368208006",
              "system": "http://snomed.info/sct",
              "display": "Left upper arm structure"
            }
          ],
          "text": "Left upper arm structure"
        },
        "route": {
          "coding": [
            {
              "code": "34206005",
              "system": "http://snomed.info/sct",
              "display": "Subcutaneous route"
            }
          ],
          "text": "Subcutaneous route"
        },
        "text": {
          "status": "generated",
          "div": "<div xmlns=\"http://www.w3.org/1999/xhtml\"><table class=\"hl7__ips\"><tr><td>Live attenuated Human alphaherpesvirus 3 only vaccine product</td><td><span class=\"nb\">22-Sep-2021</span></td></tr></table></div>"
        },
        "status": "completed",
        "patient": {
          "reference": "urn:uuid:8499029f-70ec-4919-88a9-938d8ad56397",
          "display": "Sebastian Schmidl"
        },
        "occurrenceDateTime": "2021-09-22",
        "lotNumber": "GE-EiHCmAS",
        "expirationDate": "2022-02-03"
      }
    },
    {
      "fullUrl": "urn:uuid:7de92544-71b0-40b8-be21-c3b201c447f2",
      "resource": {
        "resourceType": "Immunization",
        "id": "7de92544-71b0-40b8-be21-c3b201c447f2",
        "meta": {
          "profile": [
            "http://hl7.org/fhir/uv/ips/StructureDefinition/Immunization-uv-ips"
          ]
        },
        "vaccineCode": {
          "coding": [
            {
              "code": "29061000087103",
              "system": "http://snomed.info/sct",
              "display": "Vaccine product containing recombinant viral vector encoding SARS-CoV-2 spike protein"
            },
            {
              "code": "J07BX03",
              "system": "http://www.whocc.no/atc",
              "display": "COVID-19 vector vaccines (non-replicating)"
            }
          ],
          "text": "COVID-19 non-replicating viral vector vaccine"
        },
        "site": {
          "coding": [
            {
              "code": "244979005",
              "system": "http://snomed.info/sct",
              "display": "Entire muscle of upper arm"
            }
          ],
          "text": "Entire muscle of upper arm"
        },
        "route": {
          "coding": [
            {
              "code": "78421000",
              "system": "http://snomed.info/sct",
              "display": "Intramuscular route"
            }
          ],
          "text": "Intramuscular route"
        },
        "text": {
          "status": "generated",
          "div": "<div xmlns=\"http://www.w3.org/1999/xhtml\"><table class=\"hl7__ips\"><tr><td>COVID-19 non-replicating viral vector vaccine</td><td><span class=\"nb\">08-Sep-2021</span></td></tr></table></div>"
        },
        "status": "completed",
        "patient": {
          "reference": "urn:uuid:8499029f-70ec-4919-88a9-938d8ad56397",
          "display": "Sebastian Schmidl"
        },
        "occurrenceDateTime": "2021-09-08",
        "lotNumber": "UQ-fQkXCD",
        "expirationDate": "2021-11-02"
      }
    },
    {
      "fullUrl": "urn:uuid:20bbdf26-adbe-4123-87f7-d12eccd2a955",
      "resource": {
        "resourceType": "AllergyIntolerance",
        "id": "20bbdf26-adbe-4123-87f7-d12eccd2a955",
        "meta": {
          "profile": [
            "http://hl7.eu/fhir/base/StructureDefinition/allergyIntolerance-eu-core"
          ]
        },
        "code": {
          "coding": [
            {
              "code": "29061000087103",
              "system": "http://snomed.info/sct",
              "display": "Vaccine product containing recombinant viral vector encoding SARS-CoV-2 spike protein"
            }
          ],
          "text": "Vaccine product containing recombinant viral vector encoding SARS-CoV-2 spike protein"
        },
        "clinicalStatus": {
          "coding": [
            {
              "code": "active",
              "system": "http://terminology.hl7.org/CodeSystem/allergyintolerance-clinical"
            }
          ]
        },
        "text": {
          "status": "generated",
          "div": "<div xmlns=\"http://www.w3.org/1999/xhtml\"><table class=\"hl7__ips\"><tr><th>Allergy/Intolerance</th><th>Onset Date</th><th>Status</th><th>Type</th><th>Reaction</th></tr><tr><td>Vaccine product containing recombinant viral vector encoding SARS-CoV-2 spike protein</td><td>?</td><td>active</td><td>?</td><td></td></tr></table></div>"
        },
        "verificationStatus": {
          "coding": [
            {
              "code": "confirmed",
              "system": "http://terminology.hl7.org/CodeSystem/allergyintolerance-verification"
            }
          ]
        },
        "patient": {
          "reference": "urn:uuid:8499029f-70ec-4919-88a9-938d8ad56397",
          "display": "Sebastian Schmidl"
        },
        "_onsetDateTime": {
          "extension": [
            {
              "url": "http://hl7.org/fhir/StructureDefinition/data-absent-reason",
              "valueCode": "unknown"
            }
          ]
        }
      }
    },
    {
      "fullUrl": "urn:uuid:307adaa3-3e15-4f35-a348-b060f2979792",
      "resource": {
        "resourceType": "CarePlan",
        "id": "307adaa3-3e15-4f35-a348-b060f2979792",
        "category": [
          {
            "coding": [
              {
                "code": "assess-plan",
                "system": "http://terminology.hl7.org/CodeSystem/care-plan-category",
                "display": "Assessment and Plan"
              }
            ]
          }
        ],
        "activity": [
          {
            "detail": {
              "code": {
                "coding": [
                  {
                    "code": "698360004",
                    "system": "http://snomed.info/sct",
                    "display": "Diabetes self management plan (qualifier value)"
                  }
                ]
              },
              "reasonCode": [
                {
                  "coding": [
                    {
                      "code": "15777000",
                      "system": "http://snomed.info/sct",
                      "display": "Prediabetes"
                    }
                  ]
                }
              ],
              "status": "unknown",
              "description": "Diabetes self management plan",
              "kind": "Appointment"
            }
          }
        ],
        "period": {
          "start": "1995-11-23"
        },
        "goal": [
          {
            "reference": "urn:uuid:562688f2-c6f8-4a02-be4f-8ac4634447ca"
          }
        ],
        "text": {
          "status": "generated",
          "div": "<div xmlns=\"http://www.w3.org/1999/xhtml\"><table class=\"hl7__ips first25\"><tr><th>Active Planned Care / Goals</th><th>Start Date</th><th>Reason</th></tr><tr><td>Diabetes self management plan</td><td><span class=\"nb\">23-Nov-1995</span></td><td>Prediabetes</td></tr><tr><td><ul><li>Patient will implement and maintain a diabetes self-management plan including dietary changes, increased physical activity, and regular blood glucose monitoring to reduce risk of progression to diabetes.</li></ul></td><td></td><td></td></tr></table></div>"
        },
        "status": "active",
        "intent": "plan",
        "subject": {
          "reference": "urn:uuid:8499029f-70ec-4919-88a9-938d8ad56397",
          "display": "Sebastian Schmidl"
        }
      }
    },
    {
      "fullUrl": "urn:uuid:81f617b8-979a-4b41-ba34-19cb5eadc55c",
      "resource": {
        "resourceType": "Observation",
        "id": "81f617b8-979a-4b41-ba34-19cb5eadc55c",
        "meta": {
          "profile": [
            "http://hl7.org/fhir/StructureDefinition/vitalsigns"
          ]
        },
        "category": [
          {
            "coding": [
              {
                "system": "http://terminology.hl7.org/CodeSystem/observation-category",
                "code": "vital-signs",
                "display": "Vital Signs"
              }
            ]
          }
        ],
        "valueQuantity": {
          "value": 168.4,
          "code": "cm",
          "unit": "cm"
        },
        "text": {
          "status": "generated",
          "div": "<div xmlns=\"http://www.w3.org/1999/xhtml\"><table class=\"hl7__ips\"><tr><th>Vital Sign</th><th>Date</th><th>Measurement</th></tr><tr><td>Body Height</td><td>09-Oct-2024</td><td>168.4 cm</td></tr></table></div>"
        },
        "status": "final",
        "code": {
          "coding": [
            {
              "code": "8302-2",
              "system": "http://loinc.org",
              "display": "Body Height"
            }
          ]
        },
        "subject": {
          "reference": "urn:uuid:8499029f-70ec-4919-88a9-938d8ad56397",
          "display": "Sebastian Schmidl"
        },
        "effectiveDateTime": "2024-10-09"
      }
    },
    {
      "fullUrl": "urn:uuid:1cdebaff-a26d-404e-9cc1-51246e489456",
      "resource": {
        "resourceType": "Observation",
        "id": "1cdebaff-a26d-404e-9cc1-51246e489456",
        "meta": {
          "profile": [
            "http://hl7.org/fhir/StructureDefinition/vitalsigns"
          ]
        },
        "category": [
          {
            "coding": [
              {
                "system": "http://terminology.hl7.org/CodeSystem/observation-category",
                "code": "vital-signs",
                "display": "Vital Signs"
              }
            ]
          }
        ],
        "valueQuantity": {
          "value": 2,
          "code": "{score}",
          "unit": "{score}"
        },
        "text": {
          "status": "generated",
          "div": "<div xmlns=\"http://www.w3.org/1999/xhtml\"><table class=\"hl7__ips\"><tr><th>Vital Sign</th><th>Date</th><th>Measurement</th></tr><tr><td>Pain severity - 0-10 verbal numeric rating [Score] - Reported</td><td>09-Oct-2024</td><td>2 {score}</td></tr></table></div>"
        },
        "status": "final",
        "code": {
          "coding": [
            {
              "code": "72514-3",
              "system": "http://loinc.org",
              "display": "Pain severity - 0-10 verbal numeric rating [Score] - Reported"
            }
          ]
        },
        "subject": {
          "reference": "urn:uuid:8499029f-70ec-4919-88a9-938d8ad56397",
          "display": "Sebastian Schmidl"
        },
        "effectiveDateTime": "2024-10-09"
      }
    },
    {
      "fullUrl": "urn:uuid:1b887794-d5d2-4e58-8b8d-7e0bc9450359",
      "resource": {
        "resourceType": "Observation",
        "id": "1b887794-d5d2-4e58-8b8d-7e0bc9450359",
        "meta": {
          "profile": [
            "http://hl7.org/fhir/StructureDefinition/vitalsigns"
          ]
        },
        "category": [
          {
            "coding": [
              {
                "system": "http://terminology.hl7.org/CodeSystem/observation-category",
                "code": "vital-signs",
                "display": "Vital Signs"
              }
            ]
          }
        ],
        "valueQuantity": {
          "value": 85.6,
          "code": "kg",
          "unit": "kg"
        },
        "text": {
          "status": "generated",
          "div": "<div xmlns=\"http://www.w3.org/1999/xhtml\"><table class=\"hl7__ips\"><tr><th>Vital Sign</th><th>Date</th><th>Measurement</th></tr><tr><td>Body Weight</td><td>09-Oct-2024</td><td>85.6 kg</td></tr></table></div>"
        },
        "status": "final",
        "code": {
          "coding": [
            {
              "code": "29463-7",
              "system": "http://loinc.org",
              "display": "Body Weight"
            }
          ]
        },
        "subject": {
          "reference": "urn:uuid:8499029f-70ec-4919-88a9-938d8ad56397",
          "display": "Sebastian Schmidl"
        },
        "effectiveDateTime": "2024-10-09"
      }
    },
    {
      "fullUrl": "urn:uuid:9d7bdc21-5803-4120-9a52-08dcc58f288d",
      "resource": {
        "resourceType": "Observation",
        "id": "9d7bdc21-5803-4120-9a52-08dcc58f288d",
        "meta": {
          "profile": [
            "http://hl7.org/fhir/StructureDefinition/vitalsigns"
          ]
        },
        "category": [
          {
            "coding": [
              {
                "system": "http://terminology.hl7.org/CodeSystem/observation-category",
                "code": "vital-signs",
                "display": "Vital Signs"
              }
            ]
          }
        ],
        "valueQuantity": {
          "value": 30.2,
          "code": "kg/m2",
          "unit": "kg/m2"
        },
        "text": {
          "status": "generated",
          "div": "<div xmlns=\"http://www.w3.org/1999/xhtml\"><table class=\"hl7__ips\"><tr><th>Vital Sign</th><th>Date</th><th>Measurement</th></tr><tr><td>Body mass index (BMI) [Ratio]</td><td>09-Oct-2024</td><td>30.2 kg/m2</td></tr></table></div>"
        },
        "status": "final",
        "code": {
          "coding": [
            {
              "code": "39156-5",
              "system": "http://loinc.org",
              "display": "Body mass index (BMI) [Ratio]"
            }
          ]
        },
        "subject": {
          "reference": "urn:uuid:8499029f-70ec-4919-88a9-938d8ad56397",
          "display": "Sebastian Schmidl"
        },
        "effectiveDateTime": "2024-10-09"
      }
    },
    {
      "fullUrl": "urn:uuid:3535afbe-f830-4c5c-9391-ff9c41571e3b",
      "resource": {
        "resourceType": "Observation",
        "id": "3535afbe-f830-4c5c-9391-ff9c41571e3b",
        "meta": {
          "profile": [
            "http://hl7.org/fhir/StructureDefinition/vitalsigns"
          ]
        },
        "category": [
          {
            "coding": [
              {
                "system": "http://terminology.hl7.org/CodeSystem/observation-category",
                "code": "vital-signs",
                "display": "Vital Signs"
              }
            ]
          }
        ],
        "valueQuantity": {
          "value": 83,
          "code": "mm[Hg]",
          "unit": "mm[Hg]"
        },
        "text": {
          "status": "generated",
          "div": "<div xmlns=\"http://www.w3.org/1999/xhtml\"><table class=\"hl7__ips\"><tr><th>Vital Sign</th><th>Date</th><th>Measurement</th></tr><tr><td>Diastolic Blood Pressure</td><td>09-Oct-2024</td><td>83 mm[Hg]</td></tr></table></div>"
        },
        "status": "final",
        "code": {
          "coding": [
            {
              "code": "8462-4",
              "system": "http://loinc.org",
              "display": "Diastolic Blood Pressure"
            }
          ]
        },
        "subject": {
          "reference": "urn:uuid:8499029f-70ec-4919-88a9-938d8ad56397",
          "display": "Sebastian Schmidl"
        },
        "effectiveDateTime": "2024-10-09"
      }
    },
    {
      "fullUrl": "urn:uuid:4ac291c4-f0e6-4fa6-bf42-17743d006372",
      "resource": {
        "resourceType": "Observation",
        "id": "4ac291c4-f0e6-4fa6-bf42-17743d006372",
        "meta": {
          "profile": [
            "http://hl7.org/fhir/StructureDefinition/vitalsigns"
          ]
        },
        "category": [
          {
            "coding": [
              {
                "system": "http://terminology.hl7.org/CodeSystem/observation-category",
                "code": "vital-signs",
                "display": "Vital Signs"
              }
            ]
          }
        ],
        "valueQuantity": {
          "value": 93,
          "code": "mm[Hg]",
          "unit": "mm[Hg]"
        },
        "text": {
          "status": "generated",
          "div": "<div xmlns=\"http://www.w3.org/1999/xhtml\"><table class=\"hl7__ips\"><tr><th>Vital Sign</th><th>Date</th><th>Measurement</th></tr><tr><td>Systolic Blood Pressure</td><td>09-Oct-2024</td><td>93 mm[Hg]</td></tr></table></div>"
        },
        "status": "final",
        "code": {
          "coding": [
            {
              "code": "8480-6",
              "system": "http://loinc.org",
              "display": "Systolic Blood Pressure"
            }
          ]
        },
        "subject": {
          "reference": "urn:uuid:8499029f-70ec-4919-88a9-938d8ad56397",
          "display": "Sebastian Schmidl"
        },
        "effectiveDateTime": "2024-10-09"
      }
    },
    {
      "fullUrl": "urn:uuid:f566a6e8-3e6b-4219-bb79-03030ee33626",
      "resource": {
        "resourceType": "Observation",
        "id": "f566a6e8-3e6b-4219-bb79-03030ee33626",
        "meta": {
          "profile": [
            "http://hl7.org/fhir/StructureDefinition/vitalsigns"
          ]
        },
        "category": [
          {
            "coding": [
              {
                "system": "http://terminology.hl7.org/CodeSystem/observation-category",
                "code": "vital-signs",
                "display": "Vital Signs"
              }
            ]
          }
        ],
        "valueQuantity": {
          "value": 91,
          "code": "/min",
          "unit": "/min"
        },
        "text": {
          "status": "generated",
          "div": "<div xmlns=\"http://www.w3.org/1999/xhtml\"><table class=\"hl7__ips\"><tr><th>Vital Sign</th><th>Date</th><th>Measurement</th></tr><tr><td>Heart rate</td><td>09-Oct-2024</td><td>91 /min</td></tr></table></div>"
        },
        "status": "final",
        "code": {
          "coding": [
            {
              "code": "8867-4",
              "system": "http://loinc.org",
              "display": "Heart rate"
            }
          ]
        },
        "subject": {
          "reference": "urn:uuid:8499029f-70ec-4919-88a9-938d8ad56397",
          "display": "Sebastian Schmidl"
        },
        "effectiveDateTime": "2024-10-09"
      }
    },
    {
      "fullUrl": "urn:uuid:2b33a99c-d9ce-424a-a4db-2979590887df",
      "resource": {
        "resourceType": "Observation",
        "id": "2b33a99c-d9ce-424a-a4db-2979590887df",
        "meta": {
          "profile": [
            "http://hl7.org/fhir/StructureDefinition/vitalsigns"
          ]
        },
        "category": [
          {
            "coding": [
              {
                "system": "http://terminology.hl7.org/CodeSystem/observation-category",
                "code": "vital-signs",
                "display": "Vital Signs"
              }
            ]
          }
        ],
        "valueQuantity": {
          "value": 12,
          "code": "/min",
          "unit": "/min"
        },
        "text": {
          "status": "generated",
          "div": "<div xmlns=\"http://www.w3.org/1999/xhtml\"><table class=\"hl7__ips\"><tr><th>Vital Sign</th><th>Date</th><th>Measurement</th></tr><tr><td>Respiratory rate</td><td>09-Oct-2024</td><td>12 /min</td></tr></table></div>"
        },
        "status": "final",
        "code": {
          "coding": [
            {
              "code": "9279-1",
              "system": "http://loinc.org",
              "display": "Respiratory rate"
            }
          ]
        },
        "subject": {
          "reference": "urn:uuid:8499029f-70ec-4919-88a9-938d8ad56397",
          "display": "Sebastian Schmidl"
        },
        "effectiveDateTime": "2024-10-09"
      }
    },
    {
      "fullUrl": "urn:uuid:44820390-4ee4-4588-b89b-4de61427e8b6",
      "resource": {
        "resourceType": "Observation",
        "id": "44820390-4ee4-4588-b89b-4de61427e8b6",
        "meta": {
          "profile": [
            "http://hl7.org/fhir/StructureDefinition/vitalsigns"
          ]
        },
        "category": [
          {
            "coding": [
              {
                "system": "http://terminology.hl7.org/CodeSystem/observation-category",
                "code": "vital-signs",
                "display": "Vital Signs"
              }
            ]
          }
        ],
        "valueQuantity": {
          "value": 168.4,
          "code": "cm",
          "unit": "cm"
        },
        "text": {
          "status": "generated",
          "div": "<div xmlns=\"http://www.w3.org/1999/xhtml\"><table class=\"hl7__ips\"><tr><th>Vital Sign</th><th>Date</th><th>Measurement</th></tr><tr><td>Body Height</td><td>04-Oct-2023</td><td>168.4 cm</td></tr></table></div>"
        },
        "status": "final",
        "code": {
          "coding": [
            {
              "code": "8302-2",
              "system": "http://loinc.org",
              "display": "Body Height"
            }
          ]
        },
        "subject": {
          "reference": "urn:uuid:8499029f-70ec-4919-88a9-938d8ad56397",
          "display": "Sebastian Schmidl"
        },
        "effectiveDateTime": "2023-10-04"
      }
    },
    {
      "fullUrl": "urn:uuid:e7d7cc67-1291-4b6e-9705-bff752fff703",
      "resource": {
        "resourceType": "Observation",
        "id": "e7d7cc67-1291-4b6e-9705-bff752fff703",
        "meta": {
          "profile": [
            "http://hl7.org/fhir/StructureDefinition/vitalsigns"
          ]
        },
        "category": [
          {
            "coding": [
              {
                "system": "http://terminology.hl7.org/CodeSystem/observation-category",
                "code": "vital-signs",
                "display": "Vital Signs"
              }
            ]
          }
        ],
        "valueQuantity": {
          "value": 1,
          "code": "{score}",
          "unit": "{score}"
        },
        "text": {
          "status": "generated",
          "div": "<div xmlns=\"http://www.w3.org/1999/xhtml\"><table class=\"hl7__ips\"><tr><th>Vital Sign</th><th>Date</th><th>Measurement</th></tr><tr><td>Pain severity - 0-10 verbal numeric rating [Score] - Reported</td><td>04-Oct-2023</td><td>1 {score}</td></tr></table></div>"
        },
        "status": "final",
        "code": {
          "coding": [
            {
              "code": "72514-3",
              "system": "http://loinc.org",
              "display": "Pain severity - 0-10 verbal numeric rating [Score] - Reported"
            }
          ]
        },
        "subject": {
          "reference": "urn:uuid:8499029f-70ec-4919-88a9-938d8ad56397",
          "display": "Sebastian Schmidl"
        },
        "effectiveDateTime": "2023-10-04"
      }
    },
    {
      "fullUrl": "urn:uuid:c4f65b1d-6f68-499b-b59a-9ffdb145f96a",
      "resource": {
        "resourceType": "Observation",
        "id": "c4f65b1d-6f68-499b-b59a-9ffdb145f96a",
        "meta": {
          "profile": [
            "http://hl7.org/fhir/StructureDefinition/vitalsigns"
          ]
        },
        "category": [
          {
            "coding": [
              {
                "system": "http://terminology.hl7.org/CodeSystem/observation-category",
                "code": "vital-signs",
                "display": "Vital Signs"
              }
            ]
          }
        ],
        "valueQuantity": {
          "value": 85.4,
          "code": "kg",
          "unit": "kg"
        },
        "text": {
          "status": "generated",
          "div": "<div xmlns=\"http://www.w3.org/1999/xhtml\"><table class=\"hl7__ips\"><tr><th>Vital Sign</th><th>Date</th><th>Measurement</th></tr><tr><td>Body Weight</td><td>04-Oct-2023</td><td>85.4 kg</td></tr></table></div>"
        },
        "status": "final",
        "code": {
          "coding": [
            {
              "code": "29463-7",
              "system": "http://loinc.org",
              "display": "Body Weight"
            }
          ]
        },
        "subject": {
          "reference": "urn:uuid:8499029f-70ec-4919-88a9-938d8ad56397",
          "display": "Sebastian Schmidl"
        },
        "effectiveDateTime": "2023-10-04"
      }
    },
    {
      "fullUrl": "urn:uuid:dec78984-efe6-42c5-b02c-38b78a3f58b2",
      "resource": {
        "resourceType": "Observation",
        "id": "dec78984-efe6-42c5-b02c-38b78a3f58b2",
        "meta": {
          "profile": [
            "http://hl7.org/fhir/StructureDefinition/vitalsigns"
          ]
        },
        "category": [
          {
            "coding": [
              {
                "system": "http://terminology.hl7.org/CodeSystem/observation-category",
                "code": "vital-signs",
                "display": "Vital Signs"
              }
            ]
          }
        ],
        "valueQuantity": {
          "value": 30.1,
          "code": "kg/m2",
          "unit": "kg/m2"
        },
        "text": {
          "status": "generated",
          "div": "<div xmlns=\"http://www.w3.org/1999/xhtml\"><table class=\"hl7__ips\"><tr><th>Vital Sign</th><th>Date</th><th>Measurement</th></tr><tr><td>Body mass index (BMI) [Ratio]</td><td>04-Oct-2023</td><td>30.1 kg/m2</td></tr></table></div>"
        },
        "status": "final",
        "code": {
          "coding": [
            {
              "code": "39156-5",
              "system": "http://loinc.org",
              "display": "Body mass index (BMI) [Ratio]"
            }
          ]
        },
        "subject": {
          "reference": "urn:uuid:8499029f-70ec-4919-88a9-938d8ad56397",
          "display": "Sebastian Schmidl"
        },
        "effectiveDateTime": "2023-10-04"
      }
    },
    {
      "fullUrl": "urn:uuid:9889454f-89ce-4b64-943d-129dad0a5f45",
      "resource": {
        "resourceType": "Observation",
        "id": "9889454f-89ce-4b64-943d-129dad0a5f45",
        "meta": {
          "profile": [
            "http://hl7.org/fhir/StructureDefinition/vitalsigns"
          ]
        },
        "category": [
          {
            "coding": [
              {
                "system": "http://terminology.hl7.org/CodeSystem/observation-category",
                "code": "vital-signs",
                "display": "Vital Signs"
              }
            ]
          }
        ],
        "valueQuantity": {
          "value": 82,
          "code": "mm[Hg]",
          "unit": "mm[Hg]"
        },
        "text": {
          "status": "generated",
          "div": "<div xmlns=\"http://www.w3.org/1999/xhtml\"><table class=\"hl7__ips\"><tr><th>Vital Sign</th><th>Date</th><th>Measurement</th></tr><tr><td>Diastolic Blood Pressure</td><td>04-Oct-2023</td><td>82 mm[Hg]</td></tr></table></div>"
        },
        "status": "final",
        "code": {
          "coding": [
            {
              "code": "8462-4",
              "system": "http://loinc.org",
              "display": "Diastolic Blood Pressure"
            }
          ]
        },
        "subject": {
          "reference": "urn:uuid:8499029f-70ec-4919-88a9-938d8ad56397",
          "display": "Sebastian Schmidl"
        },
        "effectiveDateTime": "2023-10-04"
      }
    },
    {
      "fullUrl": "urn:uuid:f9bc7c6d-9eb5-454a-bb69-10c7b13f4474",
      "resource": {
        "resourceType": "Observation",
        "id": "f9bc7c6d-9eb5-454a-bb69-10c7b13f4474",
        "meta": {
          "profile": [
            "http://hl7.org/fhir/StructureDefinition/vitalsigns"
          ]
        },
        "category": [
          {
            "coding": [
              {
                "system": "http://terminology.hl7.org/CodeSystem/observation-category",
                "code": "vital-signs",
                "display": "Vital Signs"
              }
            ]
          }
        ],
        "valueQuantity": {
          "value": 87,
          "code": "mm[Hg]",
          "unit": "mm[Hg]"
        },
        "text": {
          "status": "generated",
          "div": "<div xmlns=\"http://www.w3.org/1999/xhtml\"><table class=\"hl7__ips\"><tr><th>Vital Sign</th><th>Date</th><th>Measurement</th></tr><tr><td>Systolic Blood Pressure</td><td>04-Oct-2023</td><td>87 mm[Hg]</td></tr></table></div>"
        },
        "status": "final",
        "code": {
          "coding": [
            {
              "code": "8480-6",
              "system": "http://loinc.org",
              "display": "Systolic Blood Pressure"
            }
          ]
        },
        "subject": {
          "reference": "urn:uuid:8499029f-70ec-4919-88a9-938d8ad56397",
          "display": "Sebastian Schmidl"
        },
        "effectiveDateTime": "2023-10-04"
      }
    },
    {
      "fullUrl": "urn:uuid:dec6db50-84cf-4130-be0b-27884720e87c",
      "resource": {
        "resourceType": "Observation",
        "id": "dec6db50-84cf-4130-be0b-27884720e87c",
        "meta": {
          "profile": [
            "http://hl7.org/fhir/StructureDefinition/vitalsigns"
          ]
        },
        "category": [
          {
            "coding": [
              {
                "system": "http://terminology.hl7.org/CodeSystem/observation-category",
                "code": "vital-signs",
                "display": "Vital Signs"
              }
            ]
          }
        ],
        "valueQuantity": {
          "value": 81,
          "code": "/min",
          "unit": "/min"
        },
        "text": {
          "status": "generated",
          "div": "<div xmlns=\"http://www.w3.org/1999/xhtml\"><table class=\"hl7__ips\"><tr><th>Vital Sign</th><th>Date</th><th>Measurement</th></tr><tr><td>Heart rate</td><td>04-Oct-2023</td><td>81 /min</td></tr></table></div>"
        },
        "status": "final",
        "code": {
          "coding": [
            {
              "code": "8867-4",
              "system": "http://loinc.org",
              "display": "Heart rate"
            }
          ]
        },
        "subject": {
          "reference": "urn:uuid:8499029f-70ec-4919-88a9-938d8ad56397",
          "display": "Sebastian Schmidl"
        },
        "effectiveDateTime": "2023-10-04"
      }
    },
    {
      "fullUrl": "urn:uuid:ae411fcb-7152-4fc6-96b1-119c49058759",
      "resource": {
        "resourceType": "Observation",
        "id": "ae411fcb-7152-4fc6-96b1-119c49058759",
        "meta": {
          "profile": [
            "http://hl7.org/fhir/StructureDefinition/vitalsigns"
          ]
        },
        "category": [
          {
            "coding": [
              {
                "system": "http://terminology.hl7.org/CodeSystem/observation-category",
                "code": "vital-signs",
                "display": "Vital Signs"
              }
            ]
          }
        ],
        "valueQuantity": {
          "value": 13,
          "code": "/min",
          "unit": "/min"
        },
        "text": {
          "status": "generated",
          "div": "<div xmlns=\"http://www.w3.org/1999/xhtml\"><table class=\"hl7__ips\"><tr><th>Vital Sign</th><th>Date</th><th>Measurement</th></tr><tr><td>Respiratory rate</td><td>04-Oct-2023</td><td>13 /min</td></tr></table></div>"
        },
        "status": "final",
        "code": {
          "coding": [
            {
              "code": "9279-1",
              "system": "http://loinc.org",
              "display": "Respiratory rate"
            }
          ]
        },
        "subject": {
          "reference": "urn:uuid:8499029f-70ec-4919-88a9-938d8ad56397",
          "display": "Sebastian Schmidl"
        },
        "effectiveDateTime": "2023-10-04"
      }
    },
    {
      "fullUrl": "urn:uuid:83a14c87-dc10-475d-96ae-31284efe5ccf",
      "resource": {
        "resourceType": "Observation",
        "id": "83a14c87-dc10-475d-96ae-31284efe5ccf",
        "meta": {
          "profile": [
            "http://hl7.eu/fhir/laboratory/StructureDefinition/Observation-resultslab-eu-lab"
          ]
        },
        "performer": [
          {
            "display": "The Central European Lab"
          }
        ],
        "category": [
          {
            "coding": [
              {
                "system": "http://terminology.hl7.org/CodeSystem/observation-category",
                "code": "laboratory"
              }
            ]
          }
        ],
        "code": {
          "coding": [
            {
              "code": "4548-4",
              "system": "http://loinc.org",
              "display": "Hemoglobin A1c/Hemoglobin.total in Blood"
            }
          ],
          "text": "Hemoglobin A1c/Hemoglobin.total in Blood"
        },
        "valueQuantity": {
          "system": "http://unitsofmeasure.org",
          "value": 6.2,
          "unit": "%",
          "code": "%"
        },
        "referenceRange": [
          {
            "low": {
              "value": 4.3,
              "code": "%",
              "system": "http://unitsofmeasure.org"
            }
          },
          {
            "high": {
              "value": 6.4,
              "code": "%",
              "system": "http://unitsofmeasure.org"
            }
          }
        ],
        "text": {
          "status": "generated",
          "div": "<div xmlns=\"http://www.w3.org/1999/xhtml\"><table class=\"hl7__eu__lab__report\"><tr><th>Test</th><th>10-Oct-2024</th><th>Reference&#xA0;Range</th><th>Unit</th></tr><tr><td>Hemoglobin A1c/Hemoglobin.total in Blood</td><td>6.2</td><td>4.3 - 6.4</td><td></td><td>%</td></tr></table></div>"
        },
        "status": "final",
        "subject": {
          "reference": "urn:uuid:8499029f-70ec-4919-88a9-938d8ad56397",
          "display": "Sebastian Schmidl"
        },
        "effectiveDateTime": "2024-10-09T23:21:55Z"
      }
    },
    {
      "fullUrl": "urn:uuid:7286072d-9b2f-4d4d-925f-4f3d75dbea80",
      "resource": {
        "resourceType": "Observation",
        "id": "7286072d-9b2f-4d4d-925f-4f3d75dbea80",
        "meta": {
          "profile": [
            "http://hl7.eu/fhir/laboratory/StructureDefinition/Observation-resultslab-eu-lab"
          ]
        },
        "performer": [
          {
            "display": "The Central European Lab"
          }
        ],
        "category": [
          {
            "coding": [
              {
                "system": "http://terminology.hl7.org/CodeSystem/observation-category",
                "code": "laboratory"
              }
            ]
          }
        ],
        "code": {
          "coding": [
            {
              "code": "2339-0",
              "system": "http://loinc.org",
              "display": "Glucose [Mass/volume] in Blood"
            }
          ],
          "text": "Glucose [Mass/volume] in Blood"
        },
        "valueQuantity": {
          "system": "http://unitsofmeasure.org",
          "value": 88,
          "unit": "mg/dL",
          "code": "mg/dL"
        },
        "referenceRange": [
          {
            "low": {
              "value": 70,
              "code": "mg/dL",
              "system": "http://unitsofmeasure.org"
            }
          },
          {
            "high": {
              "value": 140,
              "code": "mg/dL",
              "system": "http://unitsofmeasure.org"
            }
          }
        ],
        "text": {
          "status": "generated",
          "div": "<div xmlns=\"http://www.w3.org/1999/xhtml\"><table class=\"hl7__eu__lab__report\"><tr><th>Test</th><th>10-Oct-2024</th><th>Reference&#xA0;Range</th><th>Unit</th></tr><tr><td>Glucose [Mass/volume] in Blood</td><td>88.0</td><td>70 - 140</td><td></td><td>mg/dL</td></tr></table></div>"
        },
        "status": "final",
        "subject": {
          "reference": "urn:uuid:8499029f-70ec-4919-88a9-938d8ad56397",
          "display": "Sebastian Schmidl"
        },
        "effectiveDateTime": "2024-10-09T23:21:55Z"
      }
    },
    {
      "fullUrl": "urn:uuid:40373110-13cc-4170-9a65-c2c424380994",
      "resource": {
        "resourceType": "Observation",
        "id": "40373110-13cc-4170-9a65-c2c424380994",
        "meta": {
          "profile": [
            "http://hl7.eu/fhir/laboratory/StructureDefinition/Observation-resultslab-eu-lab"
          ]
        },
        "performer": [
          {
            "display": "The Central European Lab"
          }
        ],
        "category": [
          {
            "coding": [
              {
                "system": "http://terminology.hl7.org/CodeSystem/observation-category",
                "code": "laboratory"
              }
            ]
          }
        ],
        "code": {
          "coding": [
            {
              "code": "6299-2",
              "system": "http://loinc.org",
              "display": "Urea nitrogen [Mass/volume] in Blood"
            }
          ],
          "text": "Urea nitrogen [Mass/volume] in Blood"
        },
        "valueQuantity": {
          "system": "http://unitsofmeasure.org",
          "value": 7,
          "unit": "mg/dL",
          "code": "mg/dL"
        },
        "referenceRange": [
          {
            "low": {
              "value": 7,
              "code": "mg/dL",
              "system": "http://unitsofmeasure.org"
            }
          },
          {
            "high": {
              "value": 20,
              "code": "mg/dL",
              "system": "http://unitsofmeasure.org"
            }
          }
        ],
        "text": {
          "status": "generated",
          "div": "<div xmlns=\"http://www.w3.org/1999/xhtml\"><table class=\"hl7__eu__lab__report\"><tr><th>Test</th><th>10-Oct-2024</th><th>Reference&#xA0;Range</th><th>Unit</th></tr><tr><td>Urea nitrogen [Mass/volume] in Blood</td><td>7.0</td><td>7 - 20</td><td></td><td>mg/dL</td></tr></table></div>"
        },
        "status": "final",
        "subject": {
          "reference": "urn:uuid:8499029f-70ec-4919-88a9-938d8ad56397",
          "display": "Sebastian Schmidl"
        },
        "effectiveDateTime": "2024-10-09T23:21:55Z"
      }
    },
    {
      "fullUrl": "urn:uuid:7e1dd515-c6c8-4fcc-9705-03608fdd5208",
      "resource": {
        "resourceType": "Observation",
        "id": "7e1dd515-c6c8-4fcc-9705-03608fdd5208",
        "meta": {
          "profile": [
            "http://hl7.eu/fhir/laboratory/StructureDefinition/Observation-resultslab-eu-lab"
          ]
        },
        "performer": [
          {
            "display": "The Central European Lab"
          }
        ],
        "category": [
          {
            "coding": [
              {
                "system": "http://terminology.hl7.org/CodeSystem/observation-category",
                "code": "laboratory"
              }
            ]
          }
        ],
        "code": {
          "coding": [
            {
              "code": "38483-4",
              "system": "http://loinc.org",
              "display": "Creatinine [Mass/volume] in Blood"
            }
          ],
          "text": "Creatinine [Mass/volume] in Blood"
        },
        "valueQuantity": {
          "system": "http://unitsofmeasure.org",
          "value": 1.3,
          "unit": "mg/dL",
          "code": "mg/dL"
        },
        "referenceRange": [
          {
            "low": {
              "value": 0.6,
              "code": "mg/dL",
              "system": "http://unitsofmeasure.org"
            }
          },
          {
            "high": {
              "value": 1.3,
              "code": "mg/dL",
              "system": "http://unitsofmeasure.org"
            }
          }
        ],
        "text": {
          "status": "generated",
          "div": "<div xmlns=\"http://www.w3.org/1999/xhtml\"><table class=\"hl7__eu__lab__report\"><tr><th>Test</th><th>10-Oct-2024</th><th>Reference&#xA0;Range</th><th>Unit</th></tr><tr><td>Creatinine [Mass/volume] in Blood</td><td>1.3</td><td>0.6 - 1.3</td><td></td><td>mg/dL</td></tr></table></div>"
        },
        "status": "final",
        "subject": {
          "reference": "urn:uuid:8499029f-70ec-4919-88a9-938d8ad56397",
          "display": "Sebastian Schmidl"
        },
        "effectiveDateTime": "2024-10-09T23:21:55Z"
      }
    },
    {
      "fullUrl": "urn:uuid:79a3fd02-ad69-4d8d-9404-ce9e5a4cec94",
      "resource": {
        "resourceType": "Observation",
        "id": "79a3fd02-ad69-4d8d-9404-ce9e5a4cec94",
        "meta": {
          "profile": [
            "http://hl7.eu/fhir/laboratory/StructureDefinition/Observation-resultslab-eu-lab"
          ]
        },
        "performer": [
          {
            "display": "The Central European Lab"
          }
        ],
        "category": [
          {
            "coding": [
              {
                "system": "http://terminology.hl7.org/CodeSystem/observation-category",
                "code": "laboratory"
              }
            ]
          }
        ],
        "code": {
          "coding": [
            {
              "code": "49765-1",
              "system": "http://loinc.org",
              "display": "Calcium [Mass/volume] in Blood"
            }
          ],
          "text": "Calcium [Mass/volume] in Blood"
        },
        "valueQuantity": {
          "system": "http://unitsofmeasure.org",
          "value": 8.8,
          "unit": "mg/dL",
          "code": "mg/dL"
        },
        "referenceRange": [
          {
            "low": {
              "value": 8.5,
              "code": "mg/dL",
              "system": "http://unitsofmeasure.org"
            }
          },
          {
            "high": {
              "value": 10.5,
              "code": "mg/dL",
              "system": "http://unitsofmeasure.org"
            }
          }
        ],
        "text": {
          "status": "generated",
          "div": "<div xmlns=\"http://www.w3.org/1999/xhtml\"><table class=\"hl7__eu__lab__report\"><tr><th>Test</th><th>10-Oct-2024</th><th>Reference&#xA0;Range</th><th>Unit</th></tr><tr><td>Calcium [Mass/volume] in Blood</td><td>8.8</td><td>8.5 - 10.5</td><td></td><td>mg/dL</td></tr></table></div>"
        },
        "status": "final",
        "subject": {
          "reference": "urn:uuid:8499029f-70ec-4919-88a9-938d8ad56397",
          "display": "Sebastian Schmidl"
        },
        "effectiveDateTime": "2024-10-09T23:21:55Z"
      }
    },
    {
      "fullUrl": "urn:uuid:e4408e81-607a-419b-ac0d-d653adf1c2c6",
      "resource": {
        "resourceType": "Observation",
        "id": "e4408e81-607a-419b-ac0d-d653adf1c2c6",
        "meta": {
          "profile": [
            "http://hl7.eu/fhir/laboratory/StructureDefinition/Observation-resultslab-eu-lab"
          ]
        },
        "performer": [
          {
            "display": "The Central European Lab"
          }
        ],
        "category": [
          {
            "coding": [
              {
                "system": "http://terminology.hl7.org/CodeSystem/observation-category",
                "code": "laboratory"
              }
            ]
          }
        ],
        "code": {
          "coding": [
            {
              "code": "2947-0",
              "system": "http://loinc.org",
              "display": "Sodium [Moles/volume] in Blood"
            }
          ],
          "text": "Sodium [Moles/volume] in Blood"
        },
        "valueQuantity": {
          "system": "http://unitsofmeasure.org",
          "value": 143.3,
          "unit": "mmol/L",
          "code": "mmol/L"
        },
        "referenceRange": [
          {
            "low": {
              "value": 135,
              "code": "mmol/L",
              "system": "http://unitsofmeasure.org"
            }
          },
          {
            "high": {
              "value": 145,
              "code": "mmol/L",
              "system": "http://unitsofmeasure.org"
            }
          }
        ],
        "text": {
          "status": "generated",
          "div": "<div xmlns=\"http://www.w3.org/1999/xhtml\"><table class=\"hl7__eu__lab__report\"><tr><th>Test</th><th>10-Oct-2024</th><th>Reference&#xA0;Range</th><th>Unit</th></tr><tr><td>Sodium [Moles/volume] in Blood</td><td>143.3</td><td>135 - 145</td><td></td><td>mmol/L</td></tr></table></div>"
        },
        "status": "final",
        "subject": {
          "reference": "urn:uuid:8499029f-70ec-4919-88a9-938d8ad56397",
          "display": "Sebastian Schmidl"
        },
        "effectiveDateTime": "2024-10-09T23:21:55Z"
      }
    },
    {
      "fullUrl": "urn:uuid:4c10e90d-2461-4d32-8795-44b6bc478eba",
      "resource": {
        "resourceType": "Observation",
        "id": "4c10e90d-2461-4d32-8795-44b6bc478eba",
        "meta": {
          "profile": [
            "http://hl7.eu/fhir/laboratory/StructureDefinition/Observation-resultslab-eu-lab"
          ]
        },
        "performer": [
          {
            "display": "The Central European Lab"
          }
        ],
        "category": [
          {
            "coding": [
              {
                "system": "http://terminology.hl7.org/CodeSystem/observation-category",
                "code": "laboratory"
              }
            ]
          }
        ],
        "code": {
          "coding": [
            {
              "code": "6298-4",
              "system": "http://loinc.org",
              "display": "Potassium [Moles/volume] in Blood"
            }
          ],
          "text": "Potassium [Moles/volume] in Blood"
        },
        "valueQuantity": {
          "system": "http://unitsofmeasure.org",
          "value": 4.7,
          "unit": "mmol/L",
          "code": "mmol/L"
        },
        "referenceRange": [
          {
            "low": {
              "value": 3.5,
              "code": "mmol/L",
              "system": "http://unitsofmeasure.org"
            }
          },
          {
            "high": {
              "value": 5.3,
              "code": "mmol/L",
              "system": "http://unitsofmeasure.org"
            }
          }
        ],
        "text": {
          "status": "generated",
          "div": "<div xmlns=\"http://www.w3.org/1999/xhtml\"><table class=\"hl7__eu__lab__report\"><tr><th>Test</th><th>10-Oct-2024</th><th>Reference&#xA0;Range</th><th>Unit</th></tr><tr><td>Potassium [Moles/volume] in Blood</td><td>4.7</td><td>3.5 - 5.3</td><td></td><td>mmol/L</td></tr></table></div>"
        },
        "status": "final",
        "subject": {
          "reference": "urn:uuid:8499029f-70ec-4919-88a9-938d8ad56397",
          "display": "Sebastian Schmidl"
        },
        "effectiveDateTime": "2024-10-09T23:21:55Z"
      }
    },
    {
      "fullUrl": "urn:uuid:5960d591-e97c-48f7-9b1f-283712668a0c",
      "resource": {
        "resourceType": "Observation",
        "id": "5960d591-e97c-48f7-9b1f-283712668a0c",
        "meta": {
          "profile": [
            "http://hl7.eu/fhir/laboratory/StructureDefinition/Observation-resultslab-eu-lab"
          ]
        },
        "performer": [
          {
            "display": "The Central European Lab"
          }
        ],
        "category": [
          {
            "coding": [
              {
                "system": "http://terminology.hl7.org/CodeSystem/observation-category",
                "code": "laboratory"
              }
            ]
          }
        ],
        "code": {
          "coding": [
            {
              "code": "2069-3",
              "system": "http://loinc.org",
              "display": "Chloride [Moles/volume] in Blood"
            }
          ],
          "text": "Chloride [Moles/volume] in Blood"
        },
        "valueQuantity": {
          "system": "http://unitsofmeasure.org",
          "value": 101.1,
          "unit": "mmol/L",
          "code": "mmol/L"
        },
        "referenceRange": [
          {
            "low": {
              "value": 98,
              "code": "mmol/L",
              "system": "http://unitsofmeasure.org"
            }
          },
          {
            "high": {
              "value": 110,
              "code": "mmol/L",
              "system": "http://unitsofmeasure.org"
            }
          }
        ],
        "text": {
          "status": "generated",
          "div": "<div xmlns=\"http://www.w3.org/1999/xhtml\"><table class=\"hl7__eu__lab__report\"><tr><th>Test</th><th>10-Oct-2024</th><th>Reference&#xA0;Range</th><th>Unit</th></tr><tr><td>Chloride [Moles/volume] in Blood</td><td>101.1</td><td>98 - 110</td><td></td><td>mmol/L</td></tr></table></div>"
        },
        "status": "final",
        "subject": {
          "reference": "urn:uuid:8499029f-70ec-4919-88a9-938d8ad56397",
          "display": "Sebastian Schmidl"
        },
        "effectiveDateTime": "2024-10-09T23:21:55Z"
      }
    },
    {
      "fullUrl": "urn:uuid:fe0b9b2a-01cc-4332-8c30-c02794f1490e",
      "resource": {
        "resourceType": "Observation",
        "id": "fe0b9b2a-01cc-4332-8c30-c02794f1490e",
        "meta": {
          "profile": [
            "http://hl7.eu/fhir/laboratory/StructureDefinition/Observation-resultslab-eu-lab"
          ]
        },
        "performer": [
          {
            "display": "The Central European Lab"
          }
        ],
        "category": [
          {
            "coding": [
              {
                "system": "http://terminology.hl7.org/CodeSystem/observation-category",
                "code": "laboratory"
              }
            ]
          }
        ],
        "code": {
          "coding": [
            {
              "code": "20565-8",
              "system": "http://loinc.org",
              "display": "Carbon dioxide, total [Moles/volume] in Blood"
            }
          ],
          "text": "Carbon dioxide, total [Moles/volume] in Blood"
        },
        "valueQuantity": {
          "system": "http://unitsofmeasure.org",
          "value": 21.4,
          "unit": "mmol/L",
          "code": "mmol/L"
        },
        "referenceRange": [
          {
            "low": {
              "value": 22,
              "code": "mmol/L",
              "system": "http://unitsofmeasure.org"
            }
          },
          {
            "high": {
              "value": 29,
              "code": "mmol/L",
              "system": "http://unitsofmeasure.org"
            }
          }
        ],
        "interpretation": [
          {
            "coding": [
              {
                "code": "L",
                "system": "http://terminology.hl7.org/CodeSystem/v3-ObservationInterpretation",
                "display": "Low"
              }
            ]
          }
        ],
        "text": {
          "status": "generated",
          "div": "<div xmlns=\"http://www.w3.org/1999/xhtml\"><table class=\"hl7__eu__lab__report\"><tr><th>Test</th><th>10-Oct-2024</th><th>Reference&#xA0;Range</th><th>Unit</th></tr><tr><td>Carbon dioxide, total [Moles/volume] in Blood</td><td>21.4</td><td>22 - 29</td><td>L</td><td>mmol/L</td></tr></table></div>"
        },
        "status": "final",
        "subject": {
          "reference": "urn:uuid:8499029f-70ec-4919-88a9-938d8ad56397",
          "display": "Sebastian Schmidl"
        },
        "effectiveDateTime": "2024-10-09T23:21:55Z"
      }
    },
    {
      "fullUrl": "urn:uuid:f9da12c0-60f0-49c1-adc8-819b5be89e88",
      "resource": {
        "resourceType": "DeviceUseStatement",
        "id": "f9da12c0-60f0-49c1-adc8-819b5be89e88",
        "meta": {
          "profile": [
            "http://hl7.eu/fhir/eps/StructureDefinition/deviceUseStatement-eu-eps"
          ]
        },
        "timingPeriod": {
          "start": "1995-11-22"
        },
        "text": {
          "status": "generated",
          "div": "<div xmlns=\"http://www.w3.org/1999/xhtml\"><table class=\"hl7__ips\"><tr><td>Blood glucose meter (physical object)</td><td><span class=\"nb\">22-Nov-1995</span></td></tr></table></div>"
        },
        "status": "active",
        "device": {
          "reference": "urn:uuid:505ddec1-c44d-4e82-9e8f-4aef6bee0823",
          "display": "Blood glucose meter (physical object)"
        },
        "subject": {
          "reference": "urn:uuid:8499029f-70ec-4919-88a9-938d8ad56397",
          "display": "Sebastian Schmidl"
        }
      }
    },
    {
      "fullUrl": "urn:uuid:505ddec1-c44d-4e82-9e8f-4aef6bee0823",
      "resource": {
        "resourceType": "Device",
        "id": "505ddec1-c44d-4e82-9e8f-4aef6bee0823",
        "meta": {
          "profile": [
            "http://hl7.eu/fhir/eps/StructureDefinition/device-eu-eps"
          ]
        },
        "udiCarrier": [
          {
            "id": "(01)23386057009471(11)951102(17)201116(10)335129(21)6216106383"
          }
        ],
        "status": "active",
        "patient": {
          "reference": "urn:uuid:8499029f-70ec-4919-88a9-938d8ad56397",
          "display": "Sebastian Schmidl"
        },
        "type": {
          "coding": [
            {
              "code": "337414009",
              "system": "http://snomed.info/sct",
              "display": "Blood glucose meter (physical object)"
            }
          ]
        }
      }
    },
    {
      "fullUrl": "urn:uuid:2957d31c-f680-40b2-9224-8395b9c2a56e",
      "resource": {
        "resourceType": "Device",
        "id": "2957d31c-f680-40b2-9224-8395b9c2a56e",
        "deviceName": [
          {
            "name": "SYNDERAI Synthetic Generator",
            "type": "manufacturer-name"
          }
        ],
        "version": [
          {
            "value": "5.0"
          }
        ],
        "text": {
          "status": "generated",
          "div": "<div xmlns=\"http://www.w3.org/1999/xhtml\">SYNDERAI Synthetic Generator v5.0</div>"
        },
        "status": "active",
        "distinctIdentifier": "synderai-generator-50",
        "manufacturer": "SYNDERAI Project"
      }
    },
    {
      "fullUrl": "urn:uuid:f791397c-d0c0-419f-a619-46118cddb406",
      "resource": {
        "resourceType": "Provenance",
        "id": "f791397c-d0c0-419f-a619-46118cddb406",
        "target": [
          {
            "reference": "Patient/8499029f-70ec-4919-88a9-938d8ad56397"
          },
          {
            "reference": "Bundle/1a1301a9-2586-4608-9c60-47948857d2be"
          },
          {
            "reference": "Composition/72ab101d-47f7-4916-8cdb-0c0c41eae057"
          },
          {
            "reference": "PractitionerRole/d0a1f960-01a3-4f0c-8548-406734bd1c39"
          },
          {
            "reference": "Organization/6fc2c28f-9884-4c40-a20f-f6196767533a"
          },
          {
            "reference": "Practitioner/9645ff9f-5759-4e50-b3e6-e4924cfe16e6"
          }
        ],
        "activity": {
          "text": "Synthetic Example Data Generation"
        },
        "policy": [
          "https://synderai.net/synderai-synthetic-data-policy"
        ],
        "agent": [
          {
            "type": {
              "text": "author"
            },
            "who": {
              "reference": "Device/2957d31c-f680-40b2-9224-8395b9c2a56e"
            }
          }
        ],
        "reason": [
          {
            "text": "Interoperability Testing and Training (non-clinical use)"
          }
        ],
        "text": {
          "status": "generated",
          "div": "<div xmlns=\"http://www.w3.org/1999/xhtml\">Provenance for SYNDERAI Synthetic Example Data Resource</div>"
        },
        "recorded": "2024-10-09T23:21:55Z"
      }
    }
  ],
  "type": "document",
  "timestamp": "2024-10-09T23:21:55Z"
}
