{
  "resourceType": "Bundle",
  "id": "88a3a7f2-1035-4bde-9bd2-866d5ae43ff8",
  "meta": {
    "profile": [
      "http://hl7.eu/fhir/eps/StructureDefinition/bundle-eu-eps"
    ]
  },
  "identifier": {
    "assigner": {
      "display": "HL7 Europe"
    },
    "system": "urn:oid:2.16.840.1.113883.2.51.999",
    "value": "481229da-d7a4-4f4a-95fc-4199410778f4"
  },
  "entry": [
    {
      "fullUrl": "urn:uuid:19062305-ea12-485a-af8c-8ddbd3ef6b28",
      "resource": {
        "resourceType": "Composition",
        "id": "19062305-ea12-485a-af8c-8ddbd3ef6b28",
        "meta": {
          "security": [
            {
              "system": "http://terminology.hl7.org/CodeSystem/v3-ActReason",
              "code": "HTEST"
            },
            {
              "system": "http://terminology.hl7.org/CodeSystem/v3-ActReason",
              "code": "TRAIN"
            }
          ],
          "tag": [
            {
              "system": "https://synderai.net/fhir/CodeSystem/tags",
              "code": "synthetic",
              "display": "SYNDERAI Synthetic data"
            }
          ],
          "profile": [
            "http://hl7.eu/fhir/eps/StructureDefinition/composition-eu-eps"
          ]
        },
        "identifier": {
          "assigner": {
            "display": "HL7 Europe"
          },
          "system": "urn:oid:2.16.840.1.113883.2.51.999",
          "value": "8c41f508-bec4-4f1e-ab56-bef90ef168b6"
        },
        "type": {
          "coding": [
            {
              "code": "60591-5",
              "system": "http://loinc.org",
              "display": "Patient summary Document"
            }
          ],
          "text": "Patient summary Document"
        },
        "author": [
          {
            "reference": "urn:uuid:282f0f7d-3acb-41f9-93fa-d76685d4df51"
          }
        ],
        "section": [
          {
            "text": {
              "status": "generated",
              "div": "<div xmlns=\"http://www.w3.org/1999/xhtml\"><table class=\"hl7__ips\"><tr><th>Condition</th><th>Onset Date</th><th>Status</th></tr><tr><td>Harmful pattern of use of opioid</td><td><span class=\"nb\">12-Jan-2015</span></td><td>active</td></tr><tr><td>Transformed migraine</td><td><span class=\"nb\">05-Feb-2014</span></td><td>active</td></tr><tr><td>Idiopathic atrophic hypothyroidism</td><td><span class=\"nb\">26-Aug-2012</span></td><td>active</td></tr><tr><td>Essential hypertension</td><td><span class=\"nb\">22-Mar-1999</span></td><td>active</td></tr><tr><td>Prediabetes</td><td><span class=\"nb\">15-Mar-1993</span></td><td>active</td></tr><tr><td>Anemia</td><td><span class=\"nb\">15-Mar-1993</span></td><td>active</td></tr></table></div>"
            },
            "entry": [
              {
                "reference": "urn:uuid:8f4e9f8c-863d-4d06-baee-61a880627121"
              }
            ],
            "code": {
              "coding": [
                {
                  "system": "http://loinc.org",
                  "code": "11450-4",
                  "display": "Problem list - Reported"
                }
              ]
            },
            "title": "Problem list"
          },
          {
            "text": {
              "status": "generated",
              "div": "<div xmlns=\"http://www.w3.org/1999/xhtml\"><table class=\"hl7__ips\"><tr><td>No known medications</td></tr></table></div>"
            },
            "entry": [
              {
                "reference": "urn:uuid:0ea650f4-df40-45b9-b61d-3ee14fe8f0eb"
              }
            ],
            "code": {
              "coding": [
                {
                  "system": "http://loinc.org",
                  "code": "10160-0",
                  "display": "History of Medication use Narrative"
                }
              ]
            },
            "title": "Medication list"
          },
          {
            "text": {
              "status": "generated",
              "div": "<div xmlns=\"http://www.w3.org/1999/xhtml\"><table class=\"hl7__ips\"><tr><th>Vaccine</th><th>Date</th></tr><tr><td>Influenza virus antigen only vaccine product</td><td><span class=\"nb\">26-Aug-2024</span></td></tr><tr><td>Clostridium tetani toxoid antigen adsorbed only vaccine product</td><td><span class=\"nb\">21-Aug-2023</span></td></tr><tr><td>SARS-CoV-2 mRNA vaccine</td><td><span class=\"nb\">19-Apr-2021</span></td></tr></table></div>"
            },
            "entry": [
              {
                "reference": "urn:uuid:ac6d3586-1272-4c7b-8868-6798968619b0"
              }
            ],
            "code": {
              "coding": [
                {
                  "system": "http://loinc.org",
                  "code": "11369-6",
                  "display": "History of Immunization note"
                }
              ]
            },
            "title": "Immunizations list"
          },
          {
            "text": {
              "status": "generated",
              "div": "<div xmlns=\"http://www.w3.org/1999/xhtml\"><table class=\"hl7__ips\"><tr><th>Allergy/Intolerance</th><th>Onset Date</th><th>Status</th><th>Type</th><th>Reaction</th></tr><tr><td>Vaccine product containing SARS-CoV-2 mRNA</td><td>?</td><td>active</td><td>?</td><td></td></tr></table></div>"
            },
            "entry": [
              {
                "reference": "urn:uuid:cebabe4a-17c7-435b-98f3-5e00c198cd33"
              }
            ],
            "code": {
              "coding": [
                {
                  "system": "http://loinc.org",
                  "code": "48765-2",
                  "display": "Allergies and adverse reactions Document"
                }
              ]
            },
            "title": "Allergies and Intolerances"
          },
          {
            "text": {
              "status": "generated",
              "div": "<div xmlns=\"http://www.w3.org/1999/xhtml\"><table class=\"hl7__ips\"><tr><th>Active Planned Care / Goals</th><th>Start Date</th><th>Reason</th></tr><tr><td>Therapy</td><td><span class=\"nb\">21-Mar-2014</span></td><td>-</td></tr><tr><td>Musculoskeletal care</td><td><span class=\"nb\">05-Aug-2011</span></td><td>Localized primary osteoarthritis of the hand</td></tr><tr><td><ul><li>Decrease hand pain severity to improve function and quality of life.</li><li>Increase ability to perform daily activities requiring hand use.</li><li>Decrease swelling in affected hand joints.</li></ul></td><td></td><td></td></tr><tr><td>Lifestyle education regarding hypertension</td><td><span class=\"nb\">22-Mar-1999</span></td><td>Essential hypertension (disorder)</td></tr><tr><td><ul><li>Patient will demonstrate understanding and begin implementing recommended lifestyle changes (diet, exercise, sodium reduction, weight management) to help control blood pressure.</li></ul></td><td></td><td></td></tr><tr><td>Diabetes self management plan</td><td><span class=\"nb\">15-Mar-1993</span></td><td>Prediabetes</td></tr><tr><td><ul><li>Achieve and maintain Hemoglobin A1c below 5.7% through diabetes self-management strategies.</li><li>Achieve and maintain a weight loss of at least 5% of baseline body weight to reduce risk of progression to diabetes.</li><li>Maintain systolic blood pressure below 130 mmHg and diastolic blood pressure below 80 mmHg.</li></ul></td><td></td><td></td></tr></table></div>"
            },
            "title": "Care Plan",
            "code": {
              "coding": [
                {
                  "code": "18776-5",
                  "system": "http://loinc.org",
                  "display": "Plan of care note"
                }
              ]
            }
          },
          {
            "text": {
              "status": "generated",
              "div": "<div xmlns=\"http://www.w3.org/1999/xhtml\"><table class=\"hl7__ips\"><tr><th>Vital Signs</th><th>2024-08-26</th><th>2023-08-21</th></tr><tr><td>Body Height</td><td>163.2 cm</td><td>163.2 cm</td></tr><tr><td>Pain severity - 0-10 verbal numeric rating [Score] - Reported</td><td>1 {score}</td><td>1 {score}</td></tr><tr><td>Body Weight</td><td>73.4 kg</td><td>73.4 kg</td></tr><tr><td>Body mass index (BMI) [Ratio]</td><td>27.6 kg/m2</td><td>27.6 kg/m2</td></tr><tr><td>Diastolic Blood Pressure</td><td>66 mm[Hg]</td><td>65 mm[Hg]</td></tr><tr><td>Systolic Blood Pressure</td><td>104 mm[Hg]</td><td>106 mm[Hg]</td></tr><tr><td>Heart rate</td><td>95 /min</td><td>88 /min</td></tr><tr><td>Respiratory rate</td><td>13 /min</td><td>14 /min</td></tr></table></div>"
            },
            "entry": [
              {
                "reference": "urn:uuid:8899d17b-9926-4bdc-a942-3dd0d0d94b1a"
              }
            ],
            "code": {
              "coding": [
                {
                  "system": "http://loinc.org",
                  "code": "8716-3",
                  "display": "Vital signs note"
                }
              ]
            },
            "title": "Vital Signs"
          },
          {
            "text": {
              "status": "generated",
              "div": "<div xmlns=\"http://www.w3.org/1999/xhtml\"><table class=\"hl7__ips\"><table class=\"hl7__ips\"><thead><tr><th>Recent Lab Observations</th><th>26-AUG-2024</th><th>Reference&#xA0;Range</th><th>Unit</th></tr></thead><tbody><tr><td>Hemoglobin A1c/Hemoglobin.total in Blood</td><td>6.2</td><td>4.3 - 6.4</td><td>%</td></tr><tr><td>Glucose [Mass/volume] in Blood</td><td>90.7</td><td>70 - 140</td><td>mg/dL</td></tr><tr><td>Urea nitrogen [Mass/volume] in Blood</td><td>16.7</td><td>7 - 20</td><td>mg/dL</td></tr><tr><td>Creatinine [Mass/volume] in Blood</td><td>0.7</td><td>0.5 - 1.1</td><td>mg/dL</td></tr><tr><td>Calcium [Mass/volume] in Blood</td><td>8.7</td><td>8.5 - 10.5</td><td>mg/dL</td></tr><tr><td>Sodium [Moles/volume] in Blood</td><td>143.3</td><td>135 - 145</td><td>mmol/L</td></tr><tr><td>Potassium [Moles/volume] in Blood</td><td>5.0</td><td>3.5 - 5.1</td><td>mmol/L</td></tr><tr><td>Chloride [Moles/volume] in Blood</td><td>107.0</td><td>98 - 110</td><td>mmol/L</td></tr><tr><td>Carbon dioxide, total [Moles/volume] in Blood</td><td><strong>20.3 L</strong></td><td>22 - 29</td><td>mmol/L</td></tr></tbody></table></table></div>"
            },
            "title": "Relevant diagnostic tests/laboratory data",
            "code": {
              "coding": [
                {
                  "code": "30954-2",
                  "system": "http://loinc.org",
                  "display": "Relevant diagnostic tests/laboratory data note"
                }
              ]
            }
          },
          {
            "text": {
              "status": "generated",
              "div": "<div xmlns=\"http://www.w3.org/1999/xhtml\"><table class=\"hl7__ips\"><tr><th>Device</th><th>Date (since)</th></tr><tr><td>Blood glucose meter (physical object)</td><td><span class=\"nb\">15-Mar-1993</span></td></tr></table></div>"
            },
            "entry": [
              {
                "reference": "urn:uuid:925eef0a-3bd0-41b7-8ad9-e3b4d40bf4f6"
              }
            ],
            "code": {
              "coding": [
                {
                  "system": "http://loinc.org",
                  "code": "46264-8",
                  "display": "History of medical device use"
                }
              ]
            },
            "title": "Device Use"
          }
        ],
        "title": "European Patient Summary",
        "status": "final",
        "subject": {
          "reference": "urn:uuid:e643e2b1-bb8d-4c25-b497-54c236760e11",
          "display": "Νταίζη Χιτός"
        },
        "custodian": {
          "reference": "urn:uuid:bd840c73-551e-43bd-b690-7b9b483fdb0a"
        },
        "date": "2024-08-26",
        "confidentiality": "N"
      }
    },
    {
      "fullUrl": "urn:uuid:e643e2b1-bb8d-4c25-b497-54c236760e11",
      "resource": {
        "resourceType": "Patient",
        "id": "e643e2b1-bb8d-4c25-b497-54c236760e11",
        "meta": {
          "security": [
            {
              "system": "http://terminology.hl7.org/CodeSystem/v3-ActReason",
              "code": "HTEST"
            },
            {
              "system": "http://terminology.hl7.org/CodeSystem/v3-ActReason",
              "code": "TRAIN"
            }
          ],
          "tag": [
            {
              "system": "https://synderai.net/fhir/CodeSystem/tags",
              "code": "synthetic",
              "display": "SYNDERAI Synthetic data"
            }
          ],
          "profile": [
            "http://hl7.eu/fhir/eps/StructureDefinition/patient-eu-eps"
          ]
        },
        "identifier": [
          {
            "type": {
              "coding": [
                {
                  "code": "PT",
                  "system": "http://terminology.hl7.org/CodeSystem/v2-0203"
                }
              ]
            },
            "system": "http://ec.europa.eu/identifier/eci",
            "value": "3548-787769-4"
          },
          {
            "type": {
              "coding": [
                {
                  "code": "MR",
                  "system": "http://terminology.hl7.org/CodeSystem/v2-0203"
                }
              ]
            },
            "system": "http://local.setting.eu/identifier",
            "value": "6ac320f6-936e-b32c-8950-7019694354cc"
          }
        ],
        "name": [
          {
            "given": [
              "Νταίζη"
            ],
            "family": "Χιτός",
            "text": "Νταίζη Χιτός"
          }
        ],
        "address": [
          {
            "line": [
              "Δυτικής Φραγκίστας 510-589"
            ],
            "use": "home",
            "type": "physical",
            "postalCode": "38334",
            "city": "Βόλος",
            "country": "Greece"
          }
        ],
        "telecom": [
          {
            "system": "phone",
            "value": "210 716 0347"
          }
        ],
        "extension": [
          {
            "url": "http://hl7.org/fhir/StructureDefinition/patient-nationality",
            "valueCodeableConcept": {
              "coding": [
                {
                  "code": "GR",
                  "system": "http://hl7.org/fhir/ValueSet/country"
                }
              ]
            }
          }
        ],
        "text": {
          "status": "generated",
          "div": "<div xmlns=\"http://www.w3.org/1999/xhtml\"><table class=\"hl7__ips\"><tr><td>Νταίζη Χιτός</td><td>female</td><td>18-Apr-1966</td></tr></table></div>"
        },
        "gender": "female",
        "birthDate": "1966-04-18"
      }
    },
    {
      "fullUrl": "urn:uuid:282f0f7d-3acb-41f9-93fa-d76685d4df51",
      "resource": {
        "resourceType": "PractitionerRole",
        "id": "282f0f7d-3acb-41f9-93fa-d76685d4df51",
        "meta": {
          "profile": [
            "http://hl7.eu/fhir/base/StructureDefinition/practitionerRole-eu"
          ]
        },
        "text": {
          "status": "generated",
          "div": "<div xmlns=\"http://www.w3.org/1999/xhtml\"><table class=\"hl7__ips\">Provider Role Id 282f0f7d-3acb-41f9-93fa-d76685d4df51</table></div>"
        },
        "practitioner": {
          "reference": "urn:uuid:acf6181c-6aaf-46c6-9dbb-b456ff8c6542"
        },
        "organization": {
          "reference": "urn:uuid:bd840c73-551e-43bd-b690-7b9b483fdb0a"
        }
      }
    },
    {
      "fullUrl": "urn:uuid:bd840c73-551e-43bd-b690-7b9b483fdb0a",
      "resource": {
        "resourceType": "Organization",
        "id": "bd840c73-551e-43bd-b690-7b9b483fdb0a",
        "meta": {
          "profile": [
            "http://hl7.eu/fhir/base/StructureDefinition/organization-eu"
          ]
        },
        "identifier": [
          {
            "assigner": {
              "display": "HL7 Europe"
            },
            "system": "urn:oid:2.16.840.1.113883.2.51.999",
            "value": "73dd49a7-b629-4a95-88a1-2e2370ae1226"
          }
        ],
        "address": [
          {
            "line": [
              "121 Odós Eleftherias"
            ],
            "city": "Larissa",
            "postalCode": "412 21",
            "country": "Greece"
          }
        ],
        "text": {
          "status": "generated",
          "div": "<div xmlns=\"http://www.w3.org/1999/xhtml\"><table class=\"hl7__ips\">Dr. Dora Kontos</table></div>"
        },
        "name": "Dr. Dora Kontos"
      }
    },
    {
      "fullUrl": "urn:uuid:acf6181c-6aaf-46c6-9dbb-b456ff8c6542",
      "resource": {
        "resourceType": "Practitioner",
        "id": "acf6181c-6aaf-46c6-9dbb-b456ff8c6542",
        "meta": {
          "profile": [
            "http://hl7.eu/fhir/base/StructureDefinition/practitioner-eu"
          ]
        },
        "name": [
          {
            "prefix": [
              "Dr."
            ],
            "given": [
              "Hel"
            ],
            "family": "Ping"
          }
        ],
        "text": {
          "status": "generated",
          "div": "<div xmlns=\"http://www.w3.org/1999/xhtml\"><table class=\"hl7__ips\">Dr. Hel Ping</table></div>"
        }
      }
    },
    {
      "fullUrl": "urn:uuid:8f4e9f8c-863d-4d06-baee-61a880627121",
      "resource": {
        "resourceType": "Condition",
        "id": "8f4e9f8c-863d-4d06-baee-61a880627121",
        "meta": {
          "profile": [
            "http://hl7.org/fhir/uv/ips/StructureDefinition/Condition-uv-ips"
          ]
        },
        "category": [
          {
            "coding": [
              {
                "code": "problem-list-item",
                "system": "http://terminology.hl7.org/CodeSystem/condition-category",
                "display": "Problem List Item"
              }
            ]
          }
        ],
        "code": {
          "coding": [
            {
              "code": "5602001",
              "system": "http://snomed.info/sct",
              "display": "Harmful pattern of use of opioid (disorder)"
            }
          ],
          "text": "Harmful pattern of use of opioid"
        },
        "text": {
          "status": "generated",
          "div": "<div xmlns=\"http://www.w3.org/1999/xhtml\"><table class=\"hl7__ips\"><tr><td>Harmful pattern of use of opioid</td><td><span class=\"nb\">12-Jan-2015</span></td><td>active</td></tr></table></div>"
        },
        "onsetDateTime": "2015-01-12",
        "subject": {
          "reference": "urn:uuid:e643e2b1-bb8d-4c25-b497-54c236760e11",
          "display": "Νταίζη Χιτός"
        },
        "asserter": {
          "reference": "urn:uuid:282f0f7d-3acb-41f9-93fa-d76685d4df51",
          "display": "Dr. Dora Kontos"
        }
      }
    },
    {
      "fullUrl": "urn:uuid:fea7e6f4-c661-488e-b37b-54b6a2cbac34",
      "resource": {
        "resourceType": "Condition",
        "id": "fea7e6f4-c661-488e-b37b-54b6a2cbac34",
        "meta": {
          "profile": [
            "http://hl7.org/fhir/uv/ips/StructureDefinition/Condition-uv-ips"
          ]
        },
        "category": [
          {
            "coding": [
              {
                "code": "problem-list-item",
                "system": "http://terminology.hl7.org/CodeSystem/condition-category",
                "display": "Problem List Item"
              }
            ]
          }
        ],
        "code": {
          "coding": [
            {
              "code": "427419006",
              "system": "http://snomed.info/sct",
              "display": "Transformed migraine (disorder)"
            }
          ],
          "text": "Transformed migraine"
        },
        "text": {
          "status": "generated",
          "div": "<div xmlns=\"http://www.w3.org/1999/xhtml\"><table class=\"hl7__ips\"><tr><td>Transformed migraine</td><td><span class=\"nb\">05-Feb-2014</span></td><td>active</td></tr></table></div>"
        },
        "onsetDateTime": "2014-02-05",
        "subject": {
          "reference": "urn:uuid:e643e2b1-bb8d-4c25-b497-54c236760e11",
          "display": "Νταίζη Χιτός"
        },
        "asserter": {
          "reference": "urn:uuid:282f0f7d-3acb-41f9-93fa-d76685d4df51",
          "display": "Dr. Dora Kontos"
        }
      }
    },
    {
      "fullUrl": "urn:uuid:48d4ac64-d8a3-48c3-a164-5ada2da20326",
      "resource": {
        "resourceType": "Condition",
        "id": "48d4ac64-d8a3-48c3-a164-5ada2da20326",
        "meta": {
          "profile": [
            "http://hl7.org/fhir/uv/ips/StructureDefinition/Condition-uv-ips"
          ]
        },
        "category": [
          {
            "coding": [
              {
                "code": "problem-list-item",
                "system": "http://terminology.hl7.org/CodeSystem/condition-category",
                "display": "Problem List Item"
              }
            ]
          }
        ],
        "code": {
          "coding": [
            {
              "code": "83664006",
              "system": "http://snomed.info/sct",
              "display": "Idiopathic atrophic hypothyroidism (disorder)"
            }
          ],
          "text": "Idiopathic atrophic hypothyroidism"
        },
        "text": {
          "status": "generated",
          "div": "<div xmlns=\"http://www.w3.org/1999/xhtml\"><table class=\"hl7__ips\"><tr><td>Idiopathic atrophic hypothyroidism</td><td><span class=\"nb\">26-Aug-2012</span></td><td>active</td></tr></table></div>"
        },
        "onsetDateTime": "2012-08-26",
        "subject": {
          "reference": "urn:uuid:e643e2b1-bb8d-4c25-b497-54c236760e11",
          "display": "Νταίζη Χιτός"
        },
        "asserter": {
          "reference": "urn:uuid:282f0f7d-3acb-41f9-93fa-d76685d4df51",
          "display": "Dr. Dora Kontos"
        }
      }
    },
    {
      "fullUrl": "urn:uuid:6c9557c1-5d57-4788-bf07-dc18117c31be",
      "resource": {
        "resourceType": "Condition",
        "id": "6c9557c1-5d57-4788-bf07-dc18117c31be",
        "meta": {
          "profile": [
            "http://hl7.org/fhir/uv/ips/StructureDefinition/Condition-uv-ips"
          ]
        },
        "category": [
          {
            "coding": [
              {
                "code": "problem-list-item",
                "system": "http://terminology.hl7.org/CodeSystem/condition-category",
                "display": "Problem List Item"
              }
            ]
          }
        ],
        "code": {
          "coding": [
            {
              "code": "59621000",
              "system": "http://snomed.info/sct",
              "display": "Essential hypertension (disorder)"
            }
          ],
          "text": "Essential hypertension"
        },
        "text": {
          "status": "generated",
          "div": "<div xmlns=\"http://www.w3.org/1999/xhtml\"><table class=\"hl7__ips\"><tr><td>Essential hypertension</td><td><span class=\"nb\">22-Mar-1999</span></td><td>active</td></tr></table></div>"
        },
        "onsetDateTime": "1999-03-22",
        "subject": {
          "reference": "urn:uuid:e643e2b1-bb8d-4c25-b497-54c236760e11",
          "display": "Νταίζη Χιτός"
        },
        "asserter": {
          "reference": "urn:uuid:282f0f7d-3acb-41f9-93fa-d76685d4df51",
          "display": "Dr. Dora Kontos"
        }
      }
    },
    {
      "fullUrl": "urn:uuid:94c21a5e-f9fd-40d6-8c24-2d6f9d705843",
      "resource": {
        "resourceType": "Condition",
        "id": "94c21a5e-f9fd-40d6-8c24-2d6f9d705843",
        "meta": {
          "profile": [
            "http://hl7.org/fhir/uv/ips/StructureDefinition/Condition-uv-ips"
          ]
        },
        "category": [
          {
            "coding": [
              {
                "code": "problem-list-item",
                "system": "http://terminology.hl7.org/CodeSystem/condition-category",
                "display": "Problem List Item"
              }
            ]
          }
        ],
        "code": {
          "coding": [
            {
              "code": "15777000",
              "system": "http://snomed.info/sct",
              "display": "Prediabetes (disorder)"
            }
          ],
          "text": "Prediabetes"
        },
        "text": {
          "status": "generated",
          "div": "<div xmlns=\"http://www.w3.org/1999/xhtml\"><table class=\"hl7__ips\"><tr><td>Prediabetes</td><td><span class=\"nb\">15-Mar-1993</span></td><td>active</td></tr></table></div>"
        },
        "onsetDateTime": "1993-03-15",
        "subject": {
          "reference": "urn:uuid:e643e2b1-bb8d-4c25-b497-54c236760e11",
          "display": "Νταίζη Χιτός"
        },
        "asserter": {
          "reference": "urn:uuid:282f0f7d-3acb-41f9-93fa-d76685d4df51",
          "display": "Dr. Dora Kontos"
        }
      }
    },
    {
      "fullUrl": "urn:uuid:2a340fd7-e238-484f-a578-0b794bacfeb4",
      "resource": {
        "resourceType": "Condition",
        "id": "2a340fd7-e238-484f-a578-0b794bacfeb4",
        "meta": {
          "profile": [
            "http://hl7.org/fhir/uv/ips/StructureDefinition/Condition-uv-ips"
          ]
        },
        "category": [
          {
            "coding": [
              {
                "code": "problem-list-item",
                "system": "http://terminology.hl7.org/CodeSystem/condition-category",
                "display": "Problem List Item"
              }
            ]
          }
        ],
        "code": {
          "coding": [
            {
              "code": "271737000",
              "system": "http://snomed.info/sct",
              "display": "Anemia (disorder)"
            }
          ],
          "text": "Anemia"
        },
        "text": {
          "status": "generated",
          "div": "<div xmlns=\"http://www.w3.org/1999/xhtml\"><table class=\"hl7__ips\"><tr><td>Anemia</td><td><span class=\"nb\">15-Mar-1993</span></td><td>active</td></tr></table></div>"
        },
        "onsetDateTime": "1993-03-15",
        "subject": {
          "reference": "urn:uuid:e643e2b1-bb8d-4c25-b497-54c236760e11",
          "display": "Νταίζη Χιτός"
        },
        "asserter": {
          "reference": "urn:uuid:282f0f7d-3acb-41f9-93fa-d76685d4df51",
          "display": "Dr. Dora Kontos"
        }
      }
    },
    {
      "fullUrl": "urn:uuid:4c26dc6d-4837-431d-acfc-23f89251ee18",
      "resource": {
        "resourceType": "Condition",
        "id": "4c26dc6d-4837-431d-acfc-23f89251ee18",
        "meta": {
          "profile": [
            "http://hl7.org/fhir/uv/ips/StructureDefinition/Condition-uv-ips"
          ]
        },
        "category": [
          {
            "coding": [
              {
                "code": "problem-list-item",
                "system": "http://terminology.hl7.org/CodeSystem/condition-category",
                "display": "Problem List Item"
              }
            ]
          }
        ],
        "code": {
          "coding": [
            {
              "code": "44465007",
              "system": "http://snomed.info/sct",
              "display": "Sprain of ankle (disorder)"
            }
          ],
          "text": "Sprain of ankle"
        },
        "text": {
          "status": "generated",
          "div": "<div xmlns=\"http://www.w3.org/1999/xhtml\"><table class=\"hl7__ips\"><tr><td><span class=\"grayedout\">Sprain of ankle</span></td><td><span class=\"nb\">11-Apr-2018 - 03-May-2018</span></td><td><span class=\"grayedout\">inactive</span></td></tr></table></div>"
        },
        "onsetDateTime": "2018-04-11",
        "abatementDateTime": "2018-05-03",
        "subject": {
          "reference": "urn:uuid:e643e2b1-bb8d-4c25-b497-54c236760e11",
          "display": "Νταίζη Χιτός"
        },
        "asserter": {
          "reference": "urn:uuid:282f0f7d-3acb-41f9-93fa-d76685d4df51",
          "display": "Dr. Dora Kontos"
        }
      }
    },
    {
      "fullUrl": "urn:uuid:0ea650f4-df40-45b9-b61d-3ee14fe8f0eb",
      "resource": {
        "resourceType": "MedicationStatement",
        "id": "0ea650f4-df40-45b9-b61d-3ee14fe8f0eb",
        "meta": {
          "profile": [
            "http://hl7.eu/fhir/eps/StructureDefinition/MedicationStatement-eu-eps"
          ]
        },
        "effectivePeriod": {
          "extension": [
            {
              "url": "http://hl7.org/fhir/StructureDefinition/data-absent-reason",
              "valueCode": "unknown"
            }
          ]
        },
        "status": "active",
        "medicationCodeableConcept": {
          "coding": [
            {
              "code": "787481004",
              "system": "http://snomed.info/sct",
              "display": "No known medications (situation)"
            }
          ]
        },
        "subject": {
          "reference": "urn:uuid:e643e2b1-bb8d-4c25-b497-54c236760e11",
          "display": "Νταίζη Χιτός"
        }
      }
    },
    {
      "fullUrl": "urn:uuid:ac6d3586-1272-4c7b-8868-6798968619b0",
      "resource": {
        "resourceType": "Immunization",
        "id": "ac6d3586-1272-4c7b-8868-6798968619b0",
        "meta": {
          "profile": [
            "http://hl7.org/fhir/uv/ips/StructureDefinition/Immunization-uv-ips"
          ]
        },
        "vaccineCode": {
          "coding": [
            {
              "code": "1181000221105",
              "system": "http://snomed.info/sct",
              "display": "Vaccine product containing Influenza virus antigen"
            },
            {
              "code": "J07BB02",
              "system": "http://www.whocc.no/atc",
              "display": "Influenza, inactivated, split virus"
            }
          ],
          "text": "Influenza virus antigen only vaccine product"
        },
        "site": {
          "coding": [
            {
              "code": "244979005",
              "system": "http://snomed.info/sct",
              "display": "Entire muscle of upper arm"
            }
          ],
          "text": "Entire muscle of upper arm"
        },
        "route": {
          "coding": [
            {
              "code": "78421000",
              "system": "http://snomed.info/sct",
              "display": "Intramuscular route"
            }
          ],
          "text": "Intramuscular route"
        },
        "text": {
          "status": "generated",
          "div": "<div xmlns=\"http://www.w3.org/1999/xhtml\"><table class=\"hl7__ips\"><tr><td>Influenza virus antigen only vaccine product</td><td><span class=\"nb\">26-Aug-2024</span></td></tr></table></div>"
        },
        "status": "completed",
        "patient": {
          "reference": "urn:uuid:e643e2b1-bb8d-4c25-b497-54c236760e11",
          "display": "Νταίζη Χιτός"
        },
        "occurrenceDateTime": "2024-08-26",
        "lotNumber": "TH-PUhSy",
        "expirationDate": "2024-10-28"
      }
    },
    {
      "fullUrl": "urn:uuid:feb52460-27bc-472f-8c5a-1a48fc217d35",
      "resource": {
        "resourceType": "Immunization",
        "id": "feb52460-27bc-472f-8c5a-1a48fc217d35",
        "meta": {
          "profile": [
            "http://hl7.org/fhir/uv/ips/StructureDefinition/Immunization-uv-ips"
          ]
        },
        "vaccineCode": {
          "coding": [
            {
              "code": "777725002",
              "system": "http://snomed.info/sct",
              "display": "Vaccine product containing only Clostridium tetani toxoid antigen adsorbed"
            },
            {
              "code": "J07AM51",
              "system": "http://www.whocc.no/atc",
              "display": "Diphtheria-tetanus vaccines, adult type"
            }
          ],
          "text": "Clostridium tetani toxoid antigen adsorbed only vaccine product"
        },
        "site": {
          "coding": [
            {
              "code": "244979005",
              "system": "http://snomed.info/sct",
              "display": "Entire muscle of upper arm"
            }
          ],
          "text": "Entire muscle of upper arm"
        },
        "route": {
          "coding": [
            {
              "code": "78421000",
              "system": "http://snomed.info/sct",
              "display": "Intramuscular route"
            }
          ],
          "text": "Intramuscular route"
        },
        "text": {
          "status": "generated",
          "div": "<div xmlns=\"http://www.w3.org/1999/xhtml\"><table class=\"hl7__ips\"><tr><td>Clostridium tetani toxoid antigen adsorbed only vaccine product</td><td><span class=\"nb\">21-Aug-2023</span></td></tr></table></div>"
        },
        "status": "completed",
        "patient": {
          "reference": "urn:uuid:e643e2b1-bb8d-4c25-b497-54c236760e11",
          "display": "Νταίζη Χιτός"
        },
        "occurrenceDateTime": "2023-08-21",
        "lotNumber": "JQ-QO6wqaxqe",
        "expirationDate": "2024-06-28"
      }
    },
    {
      "fullUrl": "urn:uuid:f37ad9f6-beb3-4f86-9e7c-4a688ec96eaf",
      "resource": {
        "resourceType": "Immunization",
        "id": "f37ad9f6-beb3-4f86-9e7c-4a688ec96eaf",
        "meta": {
          "profile": [
            "http://hl7.org/fhir/uv/ips/StructureDefinition/Immunization-uv-ips"
          ]
        },
        "vaccineCode": {
          "coding": [
            {
              "code": "1119349007",
              "system": "http://snomed.info/sct",
              "display": "Vaccine product containing SARS-CoV-2 mRNA"
            },
            {
              "code": "J07BX03",
              "system": "http://www.whocc.no/atc",
              "display": "COVID-19 mRNA vaccines"
            }
          ],
          "text": "SARS-CoV-2 mRNA vaccine"
        },
        "site": {
          "coding": [
            {
              "code": "244979005",
              "system": "http://snomed.info/sct",
              "display": "Entire muscle of upper arm"
            }
          ],
          "text": "Entire muscle of upper arm"
        },
        "route": {
          "coding": [
            {
              "code": "78421000",
              "system": "http://snomed.info/sct",
              "display": "Intramuscular route"
            }
          ],
          "text": "Intramuscular route"
        },
        "text": {
          "status": "generated",
          "div": "<div xmlns=\"http://www.w3.org/1999/xhtml\"><table class=\"hl7__ips\"><tr><td>SARS-CoV-2 mRNA vaccine</td><td><span class=\"nb\">19-Apr-2021</span></td></tr></table></div>"
        },
        "status": "completed",
        "patient": {
          "reference": "urn:uuid:e643e2b1-bb8d-4c25-b497-54c236760e11",
          "display": "Νταίζη Χιτός"
        },
        "occurrenceDateTime": "2021-04-19",
        "lotNumber": "QU-htbd",
        "expirationDate": "2021-11-04"
      }
    },
    {
      "fullUrl": "urn:uuid:cebabe4a-17c7-435b-98f3-5e00c198cd33",
      "resource": {
        "resourceType": "AllergyIntolerance",
        "id": "cebabe4a-17c7-435b-98f3-5e00c198cd33",
        "meta": {
          "profile": [
            "http://hl7.eu/fhir/base/StructureDefinition/allergyIntolerance-eu-core"
          ]
        },
        "code": {
          "coding": [
            {
              "code": "1119349007",
              "system": "http://snomed.info/sct",
              "display": "Vaccine product containing SARS-CoV-2 mRNA"
            }
          ],
          "text": "Vaccine product containing SARS-CoV-2 mRNA"
        },
        "clinicalStatus": {
          "coding": [
            {
              "code": "active",
              "system": "http://terminology.hl7.org/CodeSystem/allergyintolerance-clinical"
            }
          ]
        },
        "text": {
          "status": "generated",
          "div": "<div xmlns=\"http://www.w3.org/1999/xhtml\"><table class=\"hl7__ips\"><tr><th>Allergy/Intolerance</th><th>Onset Date</th><th>Status</th><th>Type</th><th>Reaction</th></tr><tr><td>Vaccine product containing SARS-CoV-2 mRNA</td><td>?</td><td>active</td><td>?</td><td></td></tr></table></div>"
        },
        "verificationStatus": {
          "coding": [
            {
              "code": "confirmed",
              "system": "http://terminology.hl7.org/CodeSystem/allergyintolerance-verification"
            }
          ]
        },
        "patient": {
          "reference": "urn:uuid:e643e2b1-bb8d-4c25-b497-54c236760e11",
          "display": "Νταίζη Χιτός"
        },
        "_onsetDateTime": {
          "extension": [
            {
              "url": "http://hl7.org/fhir/StructureDefinition/data-absent-reason",
              "valueCode": "unknown"
            }
          ]
        }
      }
    },
    {
      "fullUrl": "urn:uuid:a8761c81-9a8b-47b9-a901-4aa007a3c9b8",
      "resource": {
        "resourceType": "CarePlan",
        "id": "a8761c81-9a8b-47b9-a901-4aa007a3c9b8",
        "category": [
          {
            "coding": [
              {
                "code": "assess-plan",
                "system": "http://terminology.hl7.org/CodeSystem/care-plan-category",
                "display": "Assessment and Plan"
              }
            ]
          }
        ],
        "activity": [
          {
            "detail": {
              "code": {
                "coding": [
                  {
                    "code": "276239002",
                    "system": "http://snomed.info/sct",
                    "display": "Therapy (regime/therapy)"
                  }
                ]
              },
              "status": "unknown",
              "description": "Therapy",
              "kind": "Appointment"
            }
          }
        ],
        "period": {
          "start": "2014-03-21"
        },
        "text": {
          "status": "generated",
          "div": "<div xmlns=\"http://www.w3.org/1999/xhtml\"><table class=\"hl7__ips first25\"><tr><th>Active Planned Care / Goals</th><th>Start Date</th><th>Reason</th></tr><tr><td>Therapy</td><td><span class=\"nb\">21-Mar-2014</span></td><td>-</td></tr></table></div>"
        },
        "status": "active",
        "intent": "plan",
        "subject": {
          "reference": "urn:uuid:e643e2b1-bb8d-4c25-b497-54c236760e11",
          "display": "Νταίζη Χιτός"
        }
      }
    },
    {
      "fullUrl": "urn:uuid:0524aec2-8770-40c9-8214-89db445256ce",
      "resource": {
        "resourceType": "CarePlan",
        "id": "0524aec2-8770-40c9-8214-89db445256ce",
        "category": [
          {
            "coding": [
              {
                "code": "assess-plan",
                "system": "http://terminology.hl7.org/CodeSystem/care-plan-category",
                "display": "Assessment and Plan"
              }
            ]
          }
        ],
        "activity": [
          {
            "detail": {
              "code": {
                "coding": [
                  {
                    "code": "408869004",
                    "system": "http://snomed.info/sct",
                    "display": "Musculoskeletal care (regime/therapy)"
                  }
                ]
              },
              "reasonCode": [
                {
                  "coding": [
                    {
                      "code": "201834006",
                      "system": "http://snomed.info/sct",
                      "display": "Localized  primary osteoarthritis of the hand"
                    }
                  ]
                }
              ],
              "status": "unknown",
              "description": "Musculoskeletal care",
              "kind": "Appointment"
            }
          }
        ],
        "period": {
          "start": "2011-08-05"
        },
        "goal": [
          {
            "reference": "urn:uuid:a69b12ff-3390-4761-ab42-cae3e987766e"
          },
          {
            "reference": "urn:uuid:2eaa4274-9e63-4a94-8593-fb218c3f71c4"
          },
          {
            "reference": "urn:uuid:f9fe1dc1-e9a8-4ff5-98cd-fe47bf456db6"
          }
        ],
        "text": {
          "status": "generated",
          "div": "<div xmlns=\"http://www.w3.org/1999/xhtml\"><table class=\"hl7__ips first25\"><tr><th>Active Planned Care / Goals</th><th>Start Date</th><th>Reason</th></tr><tr><td>Musculoskeletal care</td><td><span class=\"nb\">05-Aug-2011</span></td><td>Localized primary osteoarthritis of the hand</td></tr><tr><td><ul><li>Decrease hand pain severity to improve function and quality of life.</li><li>Increase ability to perform daily activities requiring hand use.</li><li>Decrease swelling in affected hand joints.</li></ul></td><td></td><td></td></tr></table></div>"
        },
        "status": "active",
        "intent": "plan",
        "subject": {
          "reference": "urn:uuid:e643e2b1-bb8d-4c25-b497-54c236760e11",
          "display": "Νταίζη Χιτός"
        }
      }
    },
    {
      "fullUrl": "urn:uuid:1ec34ef7-99d3-499f-b4fc-80f2b1932be9",
      "resource": {
        "resourceType": "CarePlan",
        "id": "1ec34ef7-99d3-499f-b4fc-80f2b1932be9",
        "category": [
          {
            "coding": [
              {
                "code": "assess-plan",
                "system": "http://terminology.hl7.org/CodeSystem/care-plan-category",
                "display": "Assessment and Plan"
              }
            ]
          }
        ],
        "activity": [
          {
            "detail": {
              "code": {
                "coding": [
                  {
                    "code": "443402002",
                    "system": "http://snomed.info/sct",
                    "display": "Lifestyle education regarding hypertension (procedure)"
                  }
                ]
              },
              "reasonCode": [
                {
                  "coding": [
                    {
                      "code": "59621000",
                      "system": "http://snomed.info/sct",
                      "display": "Essential hypertension (disorder)"
                    }
                  ]
                }
              ],
              "status": "unknown",
              "description": "Lifestyle education regarding hypertension",
              "kind": "Appointment"
            }
          }
        ],
        "period": {
          "start": "1999-03-22"
        },
        "goal": [
          {
            "reference": "urn:uuid:4bde1bf0-1291-4783-8520-a38d86865d51"
          }
        ],
        "text": {
          "status": "generated",
          "div": "<div xmlns=\"http://www.w3.org/1999/xhtml\"><table class=\"hl7__ips first25\"><tr><th>Active Planned Care / Goals</th><th>Start Date</th><th>Reason</th></tr><tr><td>Lifestyle education regarding hypertension</td><td><span class=\"nb\">22-Mar-1999</span></td><td>Essential hypertension (disorder)</td></tr><tr><td><ul><li>Patient will demonstrate understanding and begin implementing recommended lifestyle changes (diet, exercise, sodium reduction, weight management) to help control blood pressure.</li></ul></td><td></td><td></td></tr></table></div>"
        },
        "status": "active",
        "intent": "plan",
        "subject": {
          "reference": "urn:uuid:e643e2b1-bb8d-4c25-b497-54c236760e11",
          "display": "Νταίζη Χιτός"
        }
      }
    },
    {
      "fullUrl": "urn:uuid:96ec4f50-2d1e-43ed-9da0-edb7655bf77d",
      "resource": {
        "resourceType": "CarePlan",
        "id": "96ec4f50-2d1e-43ed-9da0-edb7655bf77d",
        "category": [
          {
            "coding": [
              {
                "code": "assess-plan",
                "system": "http://terminology.hl7.org/CodeSystem/care-plan-category",
                "display": "Assessment and Plan"
              }
            ]
          }
        ],
        "activity": [
          {
            "detail": {
              "code": {
                "coding": [
                  {
                    "code": "698360004",
                    "system": "http://snomed.info/sct",
                    "display": "Diabetes self management plan (qualifier value)"
                  }
                ]
              },
              "reasonCode": [
                {
                  "coding": [
                    {
                      "code": "15777000",
                      "system": "http://snomed.info/sct",
                      "display": "Prediabetes"
                    }
                  ]
                }
              ],
              "status": "unknown",
              "description": "Diabetes self management plan",
              "kind": "Appointment"
            }
          }
        ],
        "period": {
          "start": "1993-03-15"
        },
        "goal": [
          {
            "reference": "urn:uuid:1829093e-6804-479b-8487-1cef3effb05b"
          },
          {
            "reference": "urn:uuid:3209cd4d-4892-47ed-a6f2-233ad04658f2"
          },
          {
            "reference": "urn:uuid:547f9dda-e352-4cfc-935a-2a15233a78cb"
          }
        ],
        "text": {
          "status": "generated",
          "div": "<div xmlns=\"http://www.w3.org/1999/xhtml\"><table class=\"hl7__ips first25\"><tr><th>Active Planned Care / Goals</th><th>Start Date</th><th>Reason</th></tr><tr><td>Diabetes self management plan</td><td><span class=\"nb\">15-Mar-1993</span></td><td>Prediabetes</td></tr><tr><td><ul><li>Achieve and maintain Hemoglobin A1c below 5.7% through diabetes self-management strategies.</li><li>Achieve and maintain a weight loss of at least 5% of baseline body weight to reduce risk of progression to diabetes.</li><li>Maintain systolic blood pressure below 130 mmHg and diastolic blood pressure below 80 mmHg.</li></ul></td><td></td><td></td></tr></table></div>"
        },
        "status": "active",
        "intent": "plan",
        "subject": {
          "reference": "urn:uuid:e643e2b1-bb8d-4c25-b497-54c236760e11",
          "display": "Νταίζη Χιτός"
        }
      }
    },
    {
      "fullUrl": "urn:uuid:8899d17b-9926-4bdc-a942-3dd0d0d94b1a",
      "resource": {
        "resourceType": "Observation",
        "id": "8899d17b-9926-4bdc-a942-3dd0d0d94b1a",
        "meta": {
          "profile": [
            "http://hl7.org/fhir/StructureDefinition/vitalsigns"
          ]
        },
        "category": [
          {
            "coding": [
              {
                "system": "http://terminology.hl7.org/CodeSystem/observation-category",
                "code": "vital-signs",
                "display": "Vital Signs"
              }
            ]
          }
        ],
        "valueQuantity": {
          "value": 163.2,
          "code": "cm",
          "unit": "cm"
        },
        "text": {
          "status": "generated",
          "div": "<div xmlns=\"http://www.w3.org/1999/xhtml\"><table class=\"hl7__ips\"><tr><th>Vital Sign</th><th>Date</th><th>Measurement</th></tr><tr><td>Body Height</td><td>26-Aug-2024</td><td>163.2 cm</td></tr></table></div>"
        },
        "status": "final",
        "code": {
          "coding": [
            {
              "code": "8302-2",
              "system": "http://loinc.org",
              "display": "Body Height"
            }
          ]
        },
        "subject": {
          "reference": "urn:uuid:e643e2b1-bb8d-4c25-b497-54c236760e11",
          "display": "Νταίζη Χιτός"
        },
        "effectiveDateTime": "2024-08-26"
      }
    },
    {
      "fullUrl": "urn:uuid:7fa9876a-5a76-4a42-a8d2-955ed3962e49",
      "resource": {
        "resourceType": "Observation",
        "id": "7fa9876a-5a76-4a42-a8d2-955ed3962e49",
        "meta": {
          "profile": [
            "http://hl7.org/fhir/StructureDefinition/vitalsigns"
          ]
        },
        "category": [
          {
            "coding": [
              {
                "system": "http://terminology.hl7.org/CodeSystem/observation-category",
                "code": "vital-signs",
                "display": "Vital Signs"
              }
            ]
          }
        ],
        "valueQuantity": {
          "value": 1,
          "code": "{score}",
          "unit": "{score}"
        },
        "text": {
          "status": "generated",
          "div": "<div xmlns=\"http://www.w3.org/1999/xhtml\"><table class=\"hl7__ips\"><tr><th>Vital Sign</th><th>Date</th><th>Measurement</th></tr><tr><td>Pain severity - 0-10 verbal numeric rating [Score] - Reported</td><td>26-Aug-2024</td><td>1 {score}</td></tr></table></div>"
        },
        "status": "final",
        "code": {
          "coding": [
            {
              "code": "72514-3",
              "system": "http://loinc.org",
              "display": "Pain severity - 0-10 verbal numeric rating [Score] - Reported"
            }
          ]
        },
        "subject": {
          "reference": "urn:uuid:e643e2b1-bb8d-4c25-b497-54c236760e11",
          "display": "Νταίζη Χιτός"
        },
        "effectiveDateTime": "2024-08-26"
      }
    },
    {
      "fullUrl": "urn:uuid:aa14d58e-7ca0-45ed-886f-d21ab72794a6",
      "resource": {
        "resourceType": "Observation",
        "id": "aa14d58e-7ca0-45ed-886f-d21ab72794a6",
        "meta": {
          "profile": [
            "http://hl7.org/fhir/StructureDefinition/vitalsigns"
          ]
        },
        "category": [
          {
            "coding": [
              {
                "system": "http://terminology.hl7.org/CodeSystem/observation-category",
                "code": "vital-signs",
                "display": "Vital Signs"
              }
            ]
          }
        ],
        "valueQuantity": {
          "value": 73.4,
          "code": "kg",
          "unit": "kg"
        },
        "text": {
          "status": "generated",
          "div": "<div xmlns=\"http://www.w3.org/1999/xhtml\"><table class=\"hl7__ips\"><tr><th>Vital Sign</th><th>Date</th><th>Measurement</th></tr><tr><td>Body Weight</td><td>26-Aug-2024</td><td>73.4 kg</td></tr></table></div>"
        },
        "status": "final",
        "code": {
          "coding": [
            {
              "code": "29463-7",
              "system": "http://loinc.org",
              "display": "Body Weight"
            }
          ]
        },
        "subject": {
          "reference": "urn:uuid:e643e2b1-bb8d-4c25-b497-54c236760e11",
          "display": "Νταίζη Χιτός"
        },
        "effectiveDateTime": "2024-08-26"
      }
    },
    {
      "fullUrl": "urn:uuid:1a2f142f-592d-487f-b424-2da7dafed7e8",
      "resource": {
        "resourceType": "Observation",
        "id": "1a2f142f-592d-487f-b424-2da7dafed7e8",
        "meta": {
          "profile": [
            "http://hl7.org/fhir/StructureDefinition/vitalsigns"
          ]
        },
        "category": [
          {
            "coding": [
              {
                "system": "http://terminology.hl7.org/CodeSystem/observation-category",
                "code": "vital-signs",
                "display": "Vital Signs"
              }
            ]
          }
        ],
        "valueQuantity": {
          "value": 27.6,
          "code": "kg/m2",
          "unit": "kg/m2"
        },
        "text": {
          "status": "generated",
          "div": "<div xmlns=\"http://www.w3.org/1999/xhtml\"><table class=\"hl7__ips\"><tr><th>Vital Sign</th><th>Date</th><th>Measurement</th></tr><tr><td>Body mass index (BMI) [Ratio]</td><td>26-Aug-2024</td><td>27.6 kg/m2</td></tr></table></div>"
        },
        "status": "final",
        "code": {
          "coding": [
            {
              "code": "39156-5",
              "system": "http://loinc.org",
              "display": "Body mass index (BMI) [Ratio]"
            }
          ]
        },
        "subject": {
          "reference": "urn:uuid:e643e2b1-bb8d-4c25-b497-54c236760e11",
          "display": "Νταίζη Χιτός"
        },
        "effectiveDateTime": "2024-08-26"
      }
    },
    {
      "fullUrl": "urn:uuid:91c4f824-7e87-4f6c-b291-8ce1055ff3df",
      "resource": {
        "resourceType": "Observation",
        "id": "91c4f824-7e87-4f6c-b291-8ce1055ff3df",
        "meta": {
          "profile": [
            "http://hl7.org/fhir/StructureDefinition/vitalsigns"
          ]
        },
        "category": [
          {
            "coding": [
              {
                "system": "http://terminology.hl7.org/CodeSystem/observation-category",
                "code": "vital-signs",
                "display": "Vital Signs"
              }
            ]
          }
        ],
        "valueQuantity": {
          "value": 66,
          "code": "mm[Hg]",
          "unit": "mm[Hg]"
        },
        "text": {
          "status": "generated",
          "div": "<div xmlns=\"http://www.w3.org/1999/xhtml\"><table class=\"hl7__ips\"><tr><th>Vital Sign</th><th>Date</th><th>Measurement</th></tr><tr><td>Diastolic Blood Pressure</td><td>26-Aug-2024</td><td>66 mm[Hg]</td></tr></table></div>"
        },
        "status": "final",
        "code": {
          "coding": [
            {
              "code": "8462-4",
              "system": "http://loinc.org",
              "display": "Diastolic Blood Pressure"
            }
          ]
        },
        "subject": {
          "reference": "urn:uuid:e643e2b1-bb8d-4c25-b497-54c236760e11",
          "display": "Νταίζη Χιτός"
        },
        "effectiveDateTime": "2024-08-26"
      }
    },
    {
      "fullUrl": "urn:uuid:fbf6f12e-ba33-49ad-9d0b-25334a43460d",
      "resource": {
        "resourceType": "Observation",
        "id": "fbf6f12e-ba33-49ad-9d0b-25334a43460d",
        "meta": {
          "profile": [
            "http://hl7.org/fhir/StructureDefinition/vitalsigns"
          ]
        },
        "category": [
          {
            "coding": [
              {
                "system": "http://terminology.hl7.org/CodeSystem/observation-category",
                "code": "vital-signs",
                "display": "Vital Signs"
              }
            ]
          }
        ],
        "valueQuantity": {
          "value": 104,
          "code": "mm[Hg]",
          "unit": "mm[Hg]"
        },
        "text": {
          "status": "generated",
          "div": "<div xmlns=\"http://www.w3.org/1999/xhtml\"><table class=\"hl7__ips\"><tr><th>Vital Sign</th><th>Date</th><th>Measurement</th></tr><tr><td>Systolic Blood Pressure</td><td>26-Aug-2024</td><td>104 mm[Hg]</td></tr></table></div>"
        },
        "status": "final",
        "code": {
          "coding": [
            {
              "code": "8480-6",
              "system": "http://loinc.org",
              "display": "Systolic Blood Pressure"
            }
          ]
        },
        "subject": {
          "reference": "urn:uuid:e643e2b1-bb8d-4c25-b497-54c236760e11",
          "display": "Νταίζη Χιτός"
        },
        "effectiveDateTime": "2024-08-26"
      }
    },
    {
      "fullUrl": "urn:uuid:0366a84a-5aec-49db-aa17-d0bfdc0ed2cf",
      "resource": {
        "resourceType": "Observation",
        "id": "0366a84a-5aec-49db-aa17-d0bfdc0ed2cf",
        "meta": {
          "profile": [
            "http://hl7.org/fhir/StructureDefinition/vitalsigns"
          ]
        },
        "category": [
          {
            "coding": [
              {
                "system": "http://terminology.hl7.org/CodeSystem/observation-category",
                "code": "vital-signs",
                "display": "Vital Signs"
              }
            ]
          }
        ],
        "valueQuantity": {
          "value": 95,
          "code": "/min",
          "unit": "/min"
        },
        "text": {
          "status": "generated",
          "div": "<div xmlns=\"http://www.w3.org/1999/xhtml\"><table class=\"hl7__ips\"><tr><th>Vital Sign</th><th>Date</th><th>Measurement</th></tr><tr><td>Heart rate</td><td>26-Aug-2024</td><td>95 /min</td></tr></table></div>"
        },
        "status": "final",
        "code": {
          "coding": [
            {
              "code": "8867-4",
              "system": "http://loinc.org",
              "display": "Heart rate"
            }
          ]
        },
        "subject": {
          "reference": "urn:uuid:e643e2b1-bb8d-4c25-b497-54c236760e11",
          "display": "Νταίζη Χιτός"
        },
        "effectiveDateTime": "2024-08-26"
      }
    },
    {
      "fullUrl": "urn:uuid:f0aa7dd7-074d-41ff-9453-2f6c56c42c26",
      "resource": {
        "resourceType": "Observation",
        "id": "f0aa7dd7-074d-41ff-9453-2f6c56c42c26",
        "meta": {
          "profile": [
            "http://hl7.org/fhir/StructureDefinition/vitalsigns"
          ]
        },
        "category": [
          {
            "coding": [
              {
                "system": "http://terminology.hl7.org/CodeSystem/observation-category",
                "code": "vital-signs",
                "display": "Vital Signs"
              }
            ]
          }
        ],
        "valueQuantity": {
          "value": 13,
          "code": "/min",
          "unit": "/min"
        },
        "text": {
          "status": "generated",
          "div": "<div xmlns=\"http://www.w3.org/1999/xhtml\"><table class=\"hl7__ips\"><tr><th>Vital Sign</th><th>Date</th><th>Measurement</th></tr><tr><td>Respiratory rate</td><td>26-Aug-2024</td><td>13 /min</td></tr></table></div>"
        },
        "status": "final",
        "code": {
          "coding": [
            {
              "code": "9279-1",
              "system": "http://loinc.org",
              "display": "Respiratory rate"
            }
          ]
        },
        "subject": {
          "reference": "urn:uuid:e643e2b1-bb8d-4c25-b497-54c236760e11",
          "display": "Νταίζη Χιτός"
        },
        "effectiveDateTime": "2024-08-26"
      }
    },
    {
      "fullUrl": "urn:uuid:418a39a2-a4b8-4aab-b3fc-c85f862fd092",
      "resource": {
        "resourceType": "Observation",
        "id": "418a39a2-a4b8-4aab-b3fc-c85f862fd092",
        "meta": {
          "profile": [
            "http://hl7.org/fhir/StructureDefinition/vitalsigns"
          ]
        },
        "category": [
          {
            "coding": [
              {
                "system": "http://terminology.hl7.org/CodeSystem/observation-category",
                "code": "vital-signs",
                "display": "Vital Signs"
              }
            ]
          }
        ],
        "valueQuantity": {
          "value": 163.2,
          "code": "cm",
          "unit": "cm"
        },
        "text": {
          "status": "generated",
          "div": "<div xmlns=\"http://www.w3.org/1999/xhtml\"><table class=\"hl7__ips\"><tr><th>Vital Sign</th><th>Date</th><th>Measurement</th></tr><tr><td>Body Height</td><td>21-Aug-2023</td><td>163.2 cm</td></tr></table></div>"
        },
        "status": "final",
        "code": {
          "coding": [
            {
              "code": "8302-2",
              "system": "http://loinc.org",
              "display": "Body Height"
            }
          ]
        },
        "subject": {
          "reference": "urn:uuid:e643e2b1-bb8d-4c25-b497-54c236760e11",
          "display": "Νταίζη Χιτός"
        },
        "effectiveDateTime": "2023-08-21"
      }
    },
    {
      "fullUrl": "urn:uuid:e02b538f-9761-4925-a2bc-e3b05cb392d9",
      "resource": {
        "resourceType": "Observation",
        "id": "e02b538f-9761-4925-a2bc-e3b05cb392d9",
        "meta": {
          "profile": [
            "http://hl7.org/fhir/StructureDefinition/vitalsigns"
          ]
        },
        "category": [
          {
            "coding": [
              {
                "system": "http://terminology.hl7.org/CodeSystem/observation-category",
                "code": "vital-signs",
                "display": "Vital Signs"
              }
            ]
          }
        ],
        "valueQuantity": {
          "value": 1,
          "code": "{score}",
          "unit": "{score}"
        },
        "text": {
          "status": "generated",
          "div": "<div xmlns=\"http://www.w3.org/1999/xhtml\"><table class=\"hl7__ips\"><tr><th>Vital Sign</th><th>Date</th><th>Measurement</th></tr><tr><td>Pain severity - 0-10 verbal numeric rating [Score] - Reported</td><td>21-Aug-2023</td><td>1 {score}</td></tr></table></div>"
        },
        "status": "final",
        "code": {
          "coding": [
            {
              "code": "72514-3",
              "system": "http://loinc.org",
              "display": "Pain severity - 0-10 verbal numeric rating [Score] - Reported"
            }
          ]
        },
        "subject": {
          "reference": "urn:uuid:e643e2b1-bb8d-4c25-b497-54c236760e11",
          "display": "Νταίζη Χιτός"
        },
        "effectiveDateTime": "2023-08-21"
      }
    },
    {
      "fullUrl": "urn:uuid:cff64d10-2c21-47ed-a574-ace452c3beff",
      "resource": {
        "resourceType": "Observation",
        "id": "cff64d10-2c21-47ed-a574-ace452c3beff",
        "meta": {
          "profile": [
            "http://hl7.org/fhir/StructureDefinition/vitalsigns"
          ]
        },
        "category": [
          {
            "coding": [
              {
                "system": "http://terminology.hl7.org/CodeSystem/observation-category",
                "code": "vital-signs",
                "display": "Vital Signs"
              }
            ]
          }
        ],
        "valueQuantity": {
          "value": 73.4,
          "code": "kg",
          "unit": "kg"
        },
        "text": {
          "status": "generated",
          "div": "<div xmlns=\"http://www.w3.org/1999/xhtml\"><table class=\"hl7__ips\"><tr><th>Vital Sign</th><th>Date</th><th>Measurement</th></tr><tr><td>Body Weight</td><td>21-Aug-2023</td><td>73.4 kg</td></tr></table></div>"
        },
        "status": "final",
        "code": {
          "coding": [
            {
              "code": "29463-7",
              "system": "http://loinc.org",
              "display": "Body Weight"
            }
          ]
        },
        "subject": {
          "reference": "urn:uuid:e643e2b1-bb8d-4c25-b497-54c236760e11",
          "display": "Νταίζη Χιτός"
        },
        "effectiveDateTime": "2023-08-21"
      }
    },
    {
      "fullUrl": "urn:uuid:0611bb06-02ba-47c5-b86e-5ae26b8e35cd",
      "resource": {
        "resourceType": "Observation",
        "id": "0611bb06-02ba-47c5-b86e-5ae26b8e35cd",
        "meta": {
          "profile": [
            "http://hl7.org/fhir/StructureDefinition/vitalsigns"
          ]
        },
        "category": [
          {
            "coding": [
              {
                "system": "http://terminology.hl7.org/CodeSystem/observation-category",
                "code": "vital-signs",
                "display": "Vital Signs"
              }
            ]
          }
        ],
        "valueQuantity": {
          "value": 27.6,
          "code": "kg/m2",
          "unit": "kg/m2"
        },
        "text": {
          "status": "generated",
          "div": "<div xmlns=\"http://www.w3.org/1999/xhtml\"><table class=\"hl7__ips\"><tr><th>Vital Sign</th><th>Date</th><th>Measurement</th></tr><tr><td>Body mass index (BMI) [Ratio]</td><td>21-Aug-2023</td><td>27.6 kg/m2</td></tr></table></div>"
        },
        "status": "final",
        "code": {
          "coding": [
            {
              "code": "39156-5",
              "system": "http://loinc.org",
              "display": "Body mass index (BMI) [Ratio]"
            }
          ]
        },
        "subject": {
          "reference": "urn:uuid:e643e2b1-bb8d-4c25-b497-54c236760e11",
          "display": "Νταίζη Χιτός"
        },
        "effectiveDateTime": "2023-08-21"
      }
    },
    {
      "fullUrl": "urn:uuid:602d6b05-f82d-4434-953e-da0b2b1cf3d0",
      "resource": {
        "resourceType": "Observation",
        "id": "602d6b05-f82d-4434-953e-da0b2b1cf3d0",
        "meta": {
          "profile": [
            "http://hl7.org/fhir/StructureDefinition/vitalsigns"
          ]
        },
        "category": [
          {
            "coding": [
              {
                "system": "http://terminology.hl7.org/CodeSystem/observation-category",
                "code": "vital-signs",
                "display": "Vital Signs"
              }
            ]
          }
        ],
        "valueQuantity": {
          "value": 65,
          "code": "mm[Hg]",
          "unit": "mm[Hg]"
        },
        "text": {
          "status": "generated",
          "div": "<div xmlns=\"http://www.w3.org/1999/xhtml\"><table class=\"hl7__ips\"><tr><th>Vital Sign</th><th>Date</th><th>Measurement</th></tr><tr><td>Diastolic Blood Pressure</td><td>21-Aug-2023</td><td>65 mm[Hg]</td></tr></table></div>"
        },
        "status": "final",
        "code": {
          "coding": [
            {
              "code": "8462-4",
              "system": "http://loinc.org",
              "display": "Diastolic Blood Pressure"
            }
          ]
        },
        "subject": {
          "reference": "urn:uuid:e643e2b1-bb8d-4c25-b497-54c236760e11",
          "display": "Νταίζη Χιτός"
        },
        "effectiveDateTime": "2023-08-21"
      }
    },
    {
      "fullUrl": "urn:uuid:102348de-e09d-48fb-84f6-3618823961d0",
      "resource": {
        "resourceType": "Observation",
        "id": "102348de-e09d-48fb-84f6-3618823961d0",
        "meta": {
          "profile": [
            "http://hl7.org/fhir/StructureDefinition/vitalsigns"
          ]
        },
        "category": [
          {
            "coding": [
              {
                "system": "http://terminology.hl7.org/CodeSystem/observation-category",
                "code": "vital-signs",
                "display": "Vital Signs"
              }
            ]
          }
        ],
        "valueQuantity": {
          "value": 106,
          "code": "mm[Hg]",
          "unit": "mm[Hg]"
        },
        "text": {
          "status": "generated",
          "div": "<div xmlns=\"http://www.w3.org/1999/xhtml\"><table class=\"hl7__ips\"><tr><th>Vital Sign</th><th>Date</th><th>Measurement</th></tr><tr><td>Systolic Blood Pressure</td><td>21-Aug-2023</td><td>106 mm[Hg]</td></tr></table></div>"
        },
        "status": "final",
        "code": {
          "coding": [
            {
              "code": "8480-6",
              "system": "http://loinc.org",
              "display": "Systolic Blood Pressure"
            }
          ]
        },
        "subject": {
          "reference": "urn:uuid:e643e2b1-bb8d-4c25-b497-54c236760e11",
          "display": "Νταίζη Χιτός"
        },
        "effectiveDateTime": "2023-08-21"
      }
    },
    {
      "fullUrl": "urn:uuid:0eb9294c-8a2f-4986-91cc-88baa5c3a88b",
      "resource": {
        "resourceType": "Observation",
        "id": "0eb9294c-8a2f-4986-91cc-88baa5c3a88b",
        "meta": {
          "profile": [
            "http://hl7.org/fhir/StructureDefinition/vitalsigns"
          ]
        },
        "category": [
          {
            "coding": [
              {
                "system": "http://terminology.hl7.org/CodeSystem/observation-category",
                "code": "vital-signs",
                "display": "Vital Signs"
              }
            ]
          }
        ],
        "valueQuantity": {
          "value": 88,
          "code": "/min",
          "unit": "/min"
        },
        "text": {
          "status": "generated",
          "div": "<div xmlns=\"http://www.w3.org/1999/xhtml\"><table class=\"hl7__ips\"><tr><th>Vital Sign</th><th>Date</th><th>Measurement</th></tr><tr><td>Heart rate</td><td>21-Aug-2023</td><td>88 /min</td></tr></table></div>"
        },
        "status": "final",
        "code": {
          "coding": [
            {
              "code": "8867-4",
              "system": "http://loinc.org",
              "display": "Heart rate"
            }
          ]
        },
        "subject": {
          "reference": "urn:uuid:e643e2b1-bb8d-4c25-b497-54c236760e11",
          "display": "Νταίζη Χιτός"
        },
        "effectiveDateTime": "2023-08-21"
      }
    },
    {
      "fullUrl": "urn:uuid:33093ea4-eee3-4f18-a8a1-9f91a84ff4ef",
      "resource": {
        "resourceType": "Observation",
        "id": "33093ea4-eee3-4f18-a8a1-9f91a84ff4ef",
        "meta": {
          "profile": [
            "http://hl7.org/fhir/StructureDefinition/vitalsigns"
          ]
        },
        "category": [
          {
            "coding": [
              {
                "system": "http://terminology.hl7.org/CodeSystem/observation-category",
                "code": "vital-signs",
                "display": "Vital Signs"
              }
            ]
          }
        ],
        "valueQuantity": {
          "value": 14,
          "code": "/min",
          "unit": "/min"
        },
        "text": {
          "status": "generated",
          "div": "<div xmlns=\"http://www.w3.org/1999/xhtml\"><table class=\"hl7__ips\"><tr><th>Vital Sign</th><th>Date</th><th>Measurement</th></tr><tr><td>Respiratory rate</td><td>21-Aug-2023</td><td>14 /min</td></tr></table></div>"
        },
        "status": "final",
        "code": {
          "coding": [
            {
              "code": "9279-1",
              "system": "http://loinc.org",
              "display": "Respiratory rate"
            }
          ]
        },
        "subject": {
          "reference": "urn:uuid:e643e2b1-bb8d-4c25-b497-54c236760e11",
          "display": "Νταίζη Χιτός"
        },
        "effectiveDateTime": "2023-08-21"
      }
    },
    {
      "fullUrl": "urn:uuid:72d20845-1a9f-463e-a358-957bf5ac4058",
      "resource": {
        "resourceType": "Observation",
        "id": "72d20845-1a9f-463e-a358-957bf5ac4058",
        "meta": {
          "profile": [
            "http://hl7.eu/fhir/laboratory/StructureDefinition/Observation-resultslab-eu-lab"
          ]
        },
        "performer": [
          {
            "display": "The Central European Lab"
          }
        ],
        "category": [
          {
            "coding": [
              {
                "system": "http://terminology.hl7.org/CodeSystem/observation-category",
                "code": "laboratory"
              }
            ]
          }
        ],
        "code": {
          "coding": [
            {
              "code": "4548-4",
              "system": "http://loinc.org",
              "display": "Hemoglobin A1c/Hemoglobin.total in Blood"
            }
          ],
          "text": "Hemoglobin A1c/Hemoglobin.total in Blood"
        },
        "valueQuantity": {
          "system": "http://unitsofmeasure.org",
          "value": 6.2,
          "unit": "%",
          "code": "%"
        },
        "referenceRange": [
          {
            "low": {
              "value": 4.3,
              "code": "%",
              "system": "http://unitsofmeasure.org"
            }
          },
          {
            "high": {
              "value": 6.4,
              "code": "%",
              "system": "http://unitsofmeasure.org"
            }
          }
        ],
        "text": {
          "status": "generated",
          "div": "<div xmlns=\"http://www.w3.org/1999/xhtml\"><table class=\"hl7__eu__lab__report\"><tr><th>Test</th><th>26-Aug-2024</th><th>Reference&#xA0;Range</th><th>Unit</th></tr><tr><td>Hemoglobin A1c/Hemoglobin.total in Blood</td><td>6.2</td><td>4.3 - 6.4</td><td></td><td>%</td></tr></table></div>"
        },
        "status": "final",
        "subject": {
          "reference": "urn:uuid:e643e2b1-bb8d-4c25-b497-54c236760e11",
          "display": "Νταίζη Χιτός"
        },
        "effectiveDateTime": "2024-08-26T11:39:34Z"
      }
    },
    {
      "fullUrl": "urn:uuid:d97971d5-c2cb-4b0c-9837-9ac2cb1d4549",
      "resource": {
        "resourceType": "Observation",
        "id": "d97971d5-c2cb-4b0c-9837-9ac2cb1d4549",
        "meta": {
          "profile": [
            "http://hl7.eu/fhir/laboratory/StructureDefinition/Observation-resultslab-eu-lab"
          ]
        },
        "performer": [
          {
            "display": "The Central European Lab"
          }
        ],
        "category": [
          {
            "coding": [
              {
                "system": "http://terminology.hl7.org/CodeSystem/observation-category",
                "code": "laboratory"
              }
            ]
          }
        ],
        "code": {
          "coding": [
            {
              "code": "2339-0",
              "system": "http://loinc.org",
              "display": "Glucose [Mass/volume] in Blood"
            }
          ],
          "text": "Glucose [Mass/volume] in Blood"
        },
        "valueQuantity": {
          "system": "http://unitsofmeasure.org",
          "value": 90.7,
          "unit": "mg/dL",
          "code": "mg/dL"
        },
        "referenceRange": [
          {
            "low": {
              "value": 70,
              "code": "mg/dL",
              "system": "http://unitsofmeasure.org"
            }
          },
          {
            "high": {
              "value": 140,
              "code": "mg/dL",
              "system": "http://unitsofmeasure.org"
            }
          }
        ],
        "text": {
          "status": "generated",
          "div": "<div xmlns=\"http://www.w3.org/1999/xhtml\"><table class=\"hl7__eu__lab__report\"><tr><th>Test</th><th>26-Aug-2024</th><th>Reference&#xA0;Range</th><th>Unit</th></tr><tr><td>Glucose [Mass/volume] in Blood</td><td>90.7</td><td>70 - 140</td><td></td><td>mg/dL</td></tr></table></div>"
        },
        "status": "final",
        "subject": {
          "reference": "urn:uuid:e643e2b1-bb8d-4c25-b497-54c236760e11",
          "display": "Νταίζη Χιτός"
        },
        "effectiveDateTime": "2024-08-26T11:39:34Z"
      }
    },
    {
      "fullUrl": "urn:uuid:88c1d132-f360-4bfe-ad26-59ee3e296449",
      "resource": {
        "resourceType": "Observation",
        "id": "88c1d132-f360-4bfe-ad26-59ee3e296449",
        "meta": {
          "profile": [
            "http://hl7.eu/fhir/laboratory/StructureDefinition/Observation-resultslab-eu-lab"
          ]
        },
        "performer": [
          {
            "display": "The Central European Lab"
          }
        ],
        "category": [
          {
            "coding": [
              {
                "system": "http://terminology.hl7.org/CodeSystem/observation-category",
                "code": "laboratory"
              }
            ]
          }
        ],
        "code": {
          "coding": [
            {
              "code": "6299-2",
              "system": "http://loinc.org",
              "display": "Urea nitrogen [Mass/volume] in Blood"
            }
          ],
          "text": "Urea nitrogen [Mass/volume] in Blood"
        },
        "valueQuantity": {
          "system": "http://unitsofmeasure.org",
          "value": 16.7,
          "unit": "mg/dL",
          "code": "mg/dL"
        },
        "referenceRange": [
          {
            "low": {
              "value": 7,
              "code": "mg/dL",
              "system": "http://unitsofmeasure.org"
            }
          },
          {
            "high": {
              "value": 20,
              "code": "mg/dL",
              "system": "http://unitsofmeasure.org"
            }
          }
        ],
        "text": {
          "status": "generated",
          "div": "<div xmlns=\"http://www.w3.org/1999/xhtml\"><table class=\"hl7__eu__lab__report\"><tr><th>Test</th><th>26-Aug-2024</th><th>Reference&#xA0;Range</th><th>Unit</th></tr><tr><td>Urea nitrogen [Mass/volume] in Blood</td><td>16.7</td><td>7 - 20</td><td></td><td>mg/dL</td></tr></table></div>"
        },
        "status": "final",
        "subject": {
          "reference": "urn:uuid:e643e2b1-bb8d-4c25-b497-54c236760e11",
          "display": "Νταίζη Χιτός"
        },
        "effectiveDateTime": "2024-08-26T11:39:34Z"
      }
    },
    {
      "fullUrl": "urn:uuid:68543afe-9ba7-4edc-b263-1c2d32cec201",
      "resource": {
        "resourceType": "Observation",
        "id": "68543afe-9ba7-4edc-b263-1c2d32cec201",
        "meta": {
          "profile": [
            "http://hl7.eu/fhir/laboratory/StructureDefinition/Observation-resultslab-eu-lab"
          ]
        },
        "performer": [
          {
            "display": "The Central European Lab"
          }
        ],
        "category": [
          {
            "coding": [
              {
                "system": "http://terminology.hl7.org/CodeSystem/observation-category",
                "code": "laboratory"
              }
            ]
          }
        ],
        "code": {
          "coding": [
            {
              "code": "38483-4",
              "system": "http://loinc.org",
              "display": "Creatinine [Mass/volume] in Blood"
            }
          ],
          "text": "Creatinine [Mass/volume] in Blood"
        },
        "valueQuantity": {
          "system": "http://unitsofmeasure.org",
          "value": 0.7,
          "unit": "mg/dL",
          "code": "mg/dL"
        },
        "referenceRange": [
          {
            "low": {
              "value": 0.5,
              "code": "mg/dL",
              "system": "http://unitsofmeasure.org"
            }
          },
          {
            "high": {
              "value": 1.1,
              "code": "mg/dL",
              "system": "http://unitsofmeasure.org"
            }
          }
        ],
        "text": {
          "status": "generated",
          "div": "<div xmlns=\"http://www.w3.org/1999/xhtml\"><table class=\"hl7__eu__lab__report\"><tr><th>Test</th><th>26-Aug-2024</th><th>Reference&#xA0;Range</th><th>Unit</th></tr><tr><td>Creatinine [Mass/volume] in Blood</td><td>0.7</td><td>0.5 - 1.1</td><td></td><td>mg/dL</td></tr></table></div>"
        },
        "status": "final",
        "subject": {
          "reference": "urn:uuid:e643e2b1-bb8d-4c25-b497-54c236760e11",
          "display": "Νταίζη Χιτός"
        },
        "effectiveDateTime": "2024-08-26T11:39:34Z"
      }
    },
    {
      "fullUrl": "urn:uuid:ea8ea023-bac1-4e3a-8dc4-cef18c38b3e7",
      "resource": {
        "resourceType": "Observation",
        "id": "ea8ea023-bac1-4e3a-8dc4-cef18c38b3e7",
        "meta": {
          "profile": [
            "http://hl7.eu/fhir/laboratory/StructureDefinition/Observation-resultslab-eu-lab"
          ]
        },
        "performer": [
          {
            "display": "The Central European Lab"
          }
        ],
        "category": [
          {
            "coding": [
              {
                "system": "http://terminology.hl7.org/CodeSystem/observation-category",
                "code": "laboratory"
              }
            ]
          }
        ],
        "code": {
          "coding": [
            {
              "code": "49765-1",
              "system": "http://loinc.org",
              "display": "Calcium [Mass/volume] in Blood"
            }
          ],
          "text": "Calcium [Mass/volume] in Blood"
        },
        "valueQuantity": {
          "system": "http://unitsofmeasure.org",
          "value": 8.7,
          "unit": "mg/dL",
          "code": "mg/dL"
        },
        "referenceRange": [
          {
            "low": {
              "value": 8.5,
              "code": "mg/dL",
              "system": "http://unitsofmeasure.org"
            }
          },
          {
            "high": {
              "value": 10.5,
              "code": "mg/dL",
              "system": "http://unitsofmeasure.org"
            }
          }
        ],
        "text": {
          "status": "generated",
          "div": "<div xmlns=\"http://www.w3.org/1999/xhtml\"><table class=\"hl7__eu__lab__report\"><tr><th>Test</th><th>26-Aug-2024</th><th>Reference&#xA0;Range</th><th>Unit</th></tr><tr><td>Calcium [Mass/volume] in Blood</td><td>8.7</td><td>8.5 - 10.5</td><td></td><td>mg/dL</td></tr></table></div>"
        },
        "status": "final",
        "subject": {
          "reference": "urn:uuid:e643e2b1-bb8d-4c25-b497-54c236760e11",
          "display": "Νταίζη Χιτός"
        },
        "effectiveDateTime": "2024-08-26T11:39:34Z"
      }
    },
    {
      "fullUrl": "urn:uuid:642e4f95-5ab8-48e5-8f92-676bde36b11a",
      "resource": {
        "resourceType": "Observation",
        "id": "642e4f95-5ab8-48e5-8f92-676bde36b11a",
        "meta": {
          "profile": [
            "http://hl7.eu/fhir/laboratory/StructureDefinition/Observation-resultslab-eu-lab"
          ]
        },
        "performer": [
          {
            "display": "The Central European Lab"
          }
        ],
        "category": [
          {
            "coding": [
              {
                "system": "http://terminology.hl7.org/CodeSystem/observation-category",
                "code": "laboratory"
              }
            ]
          }
        ],
        "code": {
          "coding": [
            {
              "code": "2947-0",
              "system": "http://loinc.org",
              "display": "Sodium [Moles/volume] in Blood"
            }
          ],
          "text": "Sodium [Moles/volume] in Blood"
        },
        "valueQuantity": {
          "system": "http://unitsofmeasure.org",
          "value": 143.3,
          "unit": "mmol/L",
          "code": "mmol/L"
        },
        "referenceRange": [
          {
            "low": {
              "value": 135,
              "code": "mmol/L",
              "system": "http://unitsofmeasure.org"
            }
          },
          {
            "high": {
              "value": 145,
              "code": "mmol/L",
              "system": "http://unitsofmeasure.org"
            }
          }
        ],
        "text": {
          "status": "generated",
          "div": "<div xmlns=\"http://www.w3.org/1999/xhtml\"><table class=\"hl7__eu__lab__report\"><tr><th>Test</th><th>26-Aug-2024</th><th>Reference&#xA0;Range</th><th>Unit</th></tr><tr><td>Sodium [Moles/volume] in Blood</td><td>143.3</td><td>135 - 145</td><td></td><td>mmol/L</td></tr></table></div>"
        },
        "status": "final",
        "subject": {
          "reference": "urn:uuid:e643e2b1-bb8d-4c25-b497-54c236760e11",
          "display": "Νταίζη Χιτός"
        },
        "effectiveDateTime": "2024-08-26T11:39:34Z"
      }
    },
    {
      "fullUrl": "urn:uuid:f70c834f-000e-4563-a280-1eb43a25527a",
      "resource": {
        "resourceType": "Observation",
        "id": "f70c834f-000e-4563-a280-1eb43a25527a",
        "meta": {
          "profile": [
            "http://hl7.eu/fhir/laboratory/StructureDefinition/Observation-resultslab-eu-lab"
          ]
        },
        "performer": [
          {
            "display": "The Central European Lab"
          }
        ],
        "category": [
          {
            "coding": [
              {
                "system": "http://terminology.hl7.org/CodeSystem/observation-category",
                "code": "laboratory"
              }
            ]
          }
        ],
        "code": {
          "coding": [
            {
              "code": "6298-4",
              "system": "http://loinc.org",
              "display": "Potassium [Moles/volume] in Blood"
            }
          ],
          "text": "Potassium [Moles/volume] in Blood"
        },
        "valueQuantity": {
          "system": "http://unitsofmeasure.org",
          "value": 5,
          "unit": "mmol/L",
          "code": "mmol/L"
        },
        "referenceRange": [
          {
            "low": {
              "value": 3.5,
              "code": "mmol/L",
              "system": "http://unitsofmeasure.org"
            }
          },
          {
            "high": {
              "value": 5.1,
              "code": "mmol/L",
              "system": "http://unitsofmeasure.org"
            }
          }
        ],
        "text": {
          "status": "generated",
          "div": "<div xmlns=\"http://www.w3.org/1999/xhtml\"><table class=\"hl7__eu__lab__report\"><tr><th>Test</th><th>26-Aug-2024</th><th>Reference&#xA0;Range</th><th>Unit</th></tr><tr><td>Potassium [Moles/volume] in Blood</td><td>5.0</td><td>3.5 - 5.1</td><td></td><td>mmol/L</td></tr></table></div>"
        },
        "status": "final",
        "subject": {
          "reference": "urn:uuid:e643e2b1-bb8d-4c25-b497-54c236760e11",
          "display": "Νταίζη Χιτός"
        },
        "effectiveDateTime": "2024-08-26T11:39:34Z"
      }
    },
    {
      "fullUrl": "urn:uuid:808c62f9-72a5-419f-98f5-7b552a032ce2",
      "resource": {
        "resourceType": "Observation",
        "id": "808c62f9-72a5-419f-98f5-7b552a032ce2",
        "meta": {
          "profile": [
            "http://hl7.eu/fhir/laboratory/StructureDefinition/Observation-resultslab-eu-lab"
          ]
        },
        "performer": [
          {
            "display": "The Central European Lab"
          }
        ],
        "category": [
          {
            "coding": [
              {
                "system": "http://terminology.hl7.org/CodeSystem/observation-category",
                "code": "laboratory"
              }
            ]
          }
        ],
        "code": {
          "coding": [
            {
              "code": "2069-3",
              "system": "http://loinc.org",
              "display": "Chloride [Moles/volume] in Blood"
            }
          ],
          "text": "Chloride [Moles/volume] in Blood"
        },
        "valueQuantity": {
          "system": "http://unitsofmeasure.org",
          "value": 107,
          "unit": "mmol/L",
          "code": "mmol/L"
        },
        "referenceRange": [
          {
            "low": {
              "value": 98,
              "code": "mmol/L",
              "system": "http://unitsofmeasure.org"
            }
          },
          {
            "high": {
              "value": 110,
              "code": "mmol/L",
              "system": "http://unitsofmeasure.org"
            }
          }
        ],
        "text": {
          "status": "generated",
          "div": "<div xmlns=\"http://www.w3.org/1999/xhtml\"><table class=\"hl7__eu__lab__report\"><tr><th>Test</th><th>26-Aug-2024</th><th>Reference&#xA0;Range</th><th>Unit</th></tr><tr><td>Chloride [Moles/volume] in Blood</td><td>107.0</td><td>98 - 110</td><td></td><td>mmol/L</td></tr></table></div>"
        },
        "status": "final",
        "subject": {
          "reference": "urn:uuid:e643e2b1-bb8d-4c25-b497-54c236760e11",
          "display": "Νταίζη Χιτός"
        },
        "effectiveDateTime": "2024-08-26T11:39:34Z"
      }
    },
    {
      "fullUrl": "urn:uuid:e01c641b-a8f5-482f-9ee1-2320f8d9af3b",
      "resource": {
        "resourceType": "Observation",
        "id": "e01c641b-a8f5-482f-9ee1-2320f8d9af3b",
        "meta": {
          "profile": [
            "http://hl7.eu/fhir/laboratory/StructureDefinition/Observation-resultslab-eu-lab"
          ]
        },
        "performer": [
          {
            "display": "The Central European Lab"
          }
        ],
        "category": [
          {
            "coding": [
              {
                "system": "http://terminology.hl7.org/CodeSystem/observation-category",
                "code": "laboratory"
              }
            ]
          }
        ],
        "code": {
          "coding": [
            {
              "code": "20565-8",
              "system": "http://loinc.org",
              "display": "Carbon dioxide, total [Moles/volume] in Blood"
            }
          ],
          "text": "Carbon dioxide, total [Moles/volume] in Blood"
        },
        "valueQuantity": {
          "system": "http://unitsofmeasure.org",
          "value": 20.3,
          "unit": "mmol/L",
          "code": "mmol/L"
        },
        "referenceRange": [
          {
            "low": {
              "value": 22,
              "code": "mmol/L",
              "system": "http://unitsofmeasure.org"
            }
          },
          {
            "high": {
              "value": 29,
              "code": "mmol/L",
              "system": "http://unitsofmeasure.org"
            }
          }
        ],
        "interpretation": [
          {
            "coding": [
              {
                "code": "L",
                "system": "http://terminology.hl7.org/CodeSystem/v3-ObservationInterpretation",
                "display": "Low"
              }
            ]
          }
        ],
        "text": {
          "status": "generated",
          "div": "<div xmlns=\"http://www.w3.org/1999/xhtml\"><table class=\"hl7__eu__lab__report\"><tr><th>Test</th><th>26-Aug-2024</th><th>Reference&#xA0;Range</th><th>Unit</th></tr><tr><td>Carbon dioxide, total [Moles/volume] in Blood</td><td>20.3</td><td>22 - 29</td><td>L</td><td>mmol/L</td></tr></table></div>"
        },
        "status": "final",
        "subject": {
          "reference": "urn:uuid:e643e2b1-bb8d-4c25-b497-54c236760e11",
          "display": "Νταίζη Χιτός"
        },
        "effectiveDateTime": "2024-08-26T11:39:34Z"
      }
    },
    {
      "fullUrl": "urn:uuid:925eef0a-3bd0-41b7-8ad9-e3b4d40bf4f6",
      "resource": {
        "resourceType": "DeviceUseStatement",
        "id": "925eef0a-3bd0-41b7-8ad9-e3b4d40bf4f6",
        "meta": {
          "profile": [
            "http://hl7.eu/fhir/eps/StructureDefinition/deviceUseStatement-eu-eps"
          ]
        },
        "timingPeriod": {
          "start": "1993-03-15"
        },
        "text": {
          "status": "generated",
          "div": "<div xmlns=\"http://www.w3.org/1999/xhtml\"><table class=\"hl7__ips\"><tr><td>Blood glucose meter (physical object)</td><td><span class=\"nb\">15-Mar-1993</span></td></tr></table></div>"
        },
        "status": "active",
        "device": {
          "reference": "urn:uuid:433335c5-3ef8-45ca-affb-bd762f79a0f7",
          "display": "Blood glucose meter (physical object)"
        },
        "subject": {
          "reference": "urn:uuid:e643e2b1-bb8d-4c25-b497-54c236760e11",
          "display": "Νταίζη Χιτός"
        }
      }
    },
    {
      "fullUrl": "urn:uuid:433335c5-3ef8-45ca-affb-bd762f79a0f7",
      "resource": {
        "resourceType": "Device",
        "id": "433335c5-3ef8-45ca-affb-bd762f79a0f7",
        "meta": {
          "profile": [
            "http://hl7.eu/fhir/eps/StructureDefinition/device-eu-eps"
          ]
        },
        "udiCarrier": [
          {
            "id": "(01)46891801446022(11)930222(17)180309(10)3404814869(21)2804998"
          }
        ],
        "status": "active",
        "patient": {
          "reference": "urn:uuid:e643e2b1-bb8d-4c25-b497-54c236760e11",
          "display": "Νταίζη Χιτός"
        },
        "type": {
          "coding": [
            {
              "code": "337414009",
              "system": "http://snomed.info/sct",
              "display": "Blood glucose meter (physical object)"
            }
          ]
        }
      }
    },
    {
      "fullUrl": "urn:uuid:b398a346-edd3-4618-a661-23f1f3008318",
      "resource": {
        "resourceType": "Device",
        "id": "b398a346-edd3-4618-a661-23f1f3008318",
        "deviceName": [
          {
            "name": "SYNDERAI Synthetic Generator",
            "type": "manufacturer-name"
          }
        ],
        "version": [
          {
            "value": "5.0"
          }
        ],
        "text": {
          "status": "generated",
          "div": "<div xmlns=\"http://www.w3.org/1999/xhtml\">SYNDERAI Synthetic Generator v5.0</div>"
        },
        "status": "active",
        "distinctIdentifier": "synderai-generator-50",
        "manufacturer": "SYNDERAI Project"
      }
    },
    {
      "fullUrl": "urn:uuid:38733878-a23e-4648-b15d-355b1f04514c",
      "resource": {
        "resourceType": "Provenance",
        "id": "38733878-a23e-4648-b15d-355b1f04514c",
        "target": [
          {
            "reference": "Patient/e643e2b1-bb8d-4c25-b497-54c236760e11"
          },
          {
            "reference": "Bundle/88a3a7f2-1035-4bde-9bd2-866d5ae43ff8"
          },
          {
            "reference": "Composition/19062305-ea12-485a-af8c-8ddbd3ef6b28"
          },
          {
            "reference": "PractitionerRole/282f0f7d-3acb-41f9-93fa-d76685d4df51"
          },
          {
            "reference": "Organization/bd840c73-551e-43bd-b690-7b9b483fdb0a"
          },
          {
            "reference": "Practitioner/acf6181c-6aaf-46c6-9dbb-b456ff8c6542"
          }
        ],
        "activity": {
          "text": "Synthetic Example Data Generation"
        },
        "policy": [
          "https://synderai.net/synderai-synthetic-data-policy"
        ],
        "agent": [
          {
            "type": {
              "text": "author"
            },
            "who": {
              "reference": "Device/b398a346-edd3-4618-a661-23f1f3008318"
            }
          }
        ],
        "reason": [
          {
            "text": "Interoperability Testing and Training (non-clinical use)"
          }
        ],
        "text": {
          "status": "generated",
          "div": "<div xmlns=\"http://www.w3.org/1999/xhtml\">Provenance for SYNDERAI Synthetic Example Data Resource</div>"
        },
        "recorded": "2024-08-26T11:39:34Z"
      }
    }
  ],
  "type": "document",
  "timestamp": "2024-08-26T11:39:34Z"
}
